Subject	Mapping	Trial	Interval	CorrectResponse	Given response	Accuracy	RT	Stimulus
301	A	1	950	k	k	1	694	Wednesday
301	A	2	800	h	h	1	609	Monday
301	A	3	950	b	b	1	409	Sunday
301	A	4	500	k	k	1	1116	Wednesday
301	A	5	1100	l	l	1	1788	Thursday
301	A	6	500	h	h	1	1423	Monday
301	A	7	650	b	b	1	627	Sunday
301	A	8	1100	j	j	1	1135	Tuesday
301	A	9	800	l	l	1	719	Thursday
301	A	10	1100	h	h	1	776	Monday
301	A	11	500	b	b	1	480	Sunday
301	A	12	650	k	k	1	771	Wednesday
301	A	13	950	l	l	1	1115	Thursday
301	A	14	1100	b	b	1	565	Sunday
301	A	15	650	k	k	1	1688	Wednesday
301	A	16	950	h	h	1	600	Monday
301	A	17	650	j	j	1	1269	Tuesday
301	A	18	650	l	l	1	1500	Thursday
301	A	19	650	j	j	1	1043	Tuesday
301	A	20	950	k	k	1	1365	Wednesday
301	A	21	800	j	j	1	1362	Tuesday
301	A	22	1100	b	b	1	555	Sunday
301	A	23	800	k	k	1	1242	Wednesday
301	A	24	950	h	h	1	589	Monday
301	A	25	1100	l	l	1	880	Thursday
301	A	26	800	j	j	1	1099	Tuesday
301	A	27	1100	h	h	1	632	Monday
301	A	28	500	j	j	1	2147	Tuesday
301	A	29	500	h	h	1	595	Monday
301	A	30	500	l	l	1	1100	Thursday
301	A	31	1100	k	k	1	424	Wednesday
301	A	32	650	b	b	1	646	Sunday
301	A	33	950	j	j	1	1074	Tuesday
301	A	34	800	l	l	1	1514	Thursday
301	A	35	950	b	b	1	774	Sunday
301	A	36	1100	k	k	1	1651	Wednesday
301	A	37	1100	j	j	1	1074	Tuesday
301	A	38	950	l	l	1	827	Thursday
301	A	39	500	k	k	1	1077	Wednesday
301	A	40	500	b	b	1	627	Sunday
301	A	41	650	h	h	1	706	Monday
301	A	42	800	b	b	1	683	Sunday
301	A	43	500	l	k	0	1024	Thursday
301	A	44	650	h	h	1	1168	Monday
301	A	45	800	k	k	1	1089	Wednesday
301	A	46	800	b	b	1	558	Sunday
301	A	47	950	j	j	1	1440	Tuesday
301	A	48	800	h	h	1	754	Monday
301	A	49	650	l	l	1	1100	Thursday
301	A	50	500	j	j	1	1107	Tuesday
301	B	1	650	b	b	1	896	Thursday
301	B	2	650	j	j	1	1046	Tuesday
301	B	3	800	k	k	1	910	Monday
301	B	4	650	b	b	1	774	Thursday
301	B	5	1100	l	l	1	886	Sunday
301	B	6	800	h	h	1	686	Wednesday
301	B	7	800	j	j	1	1078	Tuesday
301	B	8	1100	k	k	1	616	Monday
301	B	9	500	j	j	1	1072	Tuesday
301	B	10	950	h	h	1	926	Wednesday
301	B	11	500	k	k	1	803	Monday
301	B	12	500	b	b	1	1113	Thursday
301	B	13	1100	h	h	1	755	Wednesday
301	B	14	650	l	l	1	683	Sunday
301	B	15	950	j	j	1	939	Tuesday
301	B	16	800	b	b	1	726	Thursday
301	B	17	950	l	l	1	724	Sunday
301	B	18	1100	h	h	1	854	Wednesday
301	B	19	1100	j	j	1	1438	Tuesday
301	B	20	950	b	b	1	675	Thursday
301	B	21	500	h	j	0	782	Wednesday
301	B	22	500	l	l	1	724	Sunday
301	B	23	650	k	k	1	643	Monday
301	B	24	800	l	l	1	579	Sunday
301	B	25	500	b	b	1	2491	Thursday
301	B	26	650	k	k	1	582	Monday
301	B	27	800	h	h	1	727	Wednesday
301	B	28	800	l	l	1	809	Sunday
301	B	29	950	j	j	1	2702	Tuesday
301	B	30	950	h	h	1	609	Wednesday
301	B	31	800	k	k	1	843	Monday
301	B	32	1100	b	b	1	2091	Thursday
301	B	33	500	k	k	1	1145	Monday
301	B	34	650	l	l	1	558	Sunday
301	B	35	1100	k	k	1	673	Monday
301	B	36	1100	j	j	1	3251	Tuesday
301	B	37	500	l	l	1	595	Sunday
301	B	38	800	b	b	1	995	Thursday
301	B	39	650	h	h	1	667	Wednesday
301	B	40	950	b	b	1	697	Thursday
301	B	41	1100	l	l	1	505	Sunday
301	B	42	650	h	h	1	832	Wednesday
301	B	43	950	k	k	1	577	Monday
301	B	44	650	j	j	1	974	Tuesday
301	B	45	950	l	l	1	1009	Sunday
301	B	46	500	h	h	1	662	Wednesday
301	B	47	500	j	j	1	1453	Tuesday
301	B	48	950	k	k	1	3368	Monday
301	B	49	1100	b	b	1	1221	Thursday
301	B	50	800	j	j	1	976	Tuesday
301	C	1	950	j	j	1	1392	Tuesday
301	C	2	800	l	l	1	679	Sunday
301	C	3	800	h	h	1	683	Wednesday
301	C	4	650	k	k	1	1133	Monday
301	C	5	500	b	h	0	779	Thursday
301	C	6	800	l	l	1	485	Sunday
301	C	7	650	k	k	1	768	Monday
301	C	8	500	l	k	0	566	Sunday
301	C	9	500	h	h	1	731	Wednesday
301	C	10	950	b	b	1	867	Thursday
301	C	11	1100	j	j	1	979	Tuesday
301	C	12	1100	h	h	1	691	Wednesday
301	C	13	950	l	l	1	395	Sunday
301	C	14	800	b	b	1	2424	Thursday
301	C	15	950	j	j	1	1011	Tuesday
301	C	16	650	l	l	1	700	Sunday
301	C	17	1100	h	h	1	848	Wednesday
301	C	18	500	b	b	1	2366	Thursday
301	C	19	500	k	k	1	779	Monday
301	C	20	950	h	h	1	670	Wednesday
301	C	21	500	j	j	1	984	Tuesday
301	C	22	1100	k	k	1	616	Monday
301	C	23	800	j	j	1	1130	Tuesday
301	C	24	800	h	h	1	722	Wednesday
301	C	25	1100	l	l	1	487	Sunday
301	C	26	500	j	j	1	989	Tuesday
301	C	27	650	b	b	1	901	Thursday
301	C	28	800	k	k	1	652	Monday
301	C	29	650	j	j	1	1648	Tuesday
301	C	30	650	b	b	1	618	Thursday
301	C	31	650	j	j	1	698	Tuesday
301	C	32	950	k	k	1	698	Monday
301	C	33	650	h	h	1	1930	Wednesday
301	C	34	1100	l	l	1	616	Sunday
301	C	35	950	b	b	1	1482	Thursday
301	C	36	650	h	h	1	965	Wednesday
301	C	37	800	b	j	0	1821	Thursday
301	C	38	500	l	j	0	679	Sunday
301	C	39	1100	j	j	1	720	Tuesday
301	C	40	1100	k	k	1	696	Monday
301	C	41	650	l	l	1	608	Sunday
301	C	42	500	k	k	1	693	Monday
301	C	43	1100	b	j	0	1498	Thursday
301	C	44	500	h	h	1	1610	Wednesday
301	C	45	950	l	l	1	683	Sunday
301	C	46	800	k	k	1	659	Monday
301	C	47	950	h	h	1	741	Wednesday
301	C	48	800	j	j	1	1504	Tuesday
301	C	49	1100	b	b	1	680	Thursday
301	C	50	950	k	k	1	653	Monday
301	D	1	800	j	j	1	988	Tuesday
301	D	2	1100	l	j	0	1135	Thursday
301	D	3	950	h	h	1	787	Monday
301	D	4	500	j	j	1	1274	Tuesday
301	D	5	500	k	k	1	1284	Wednesday
301	D	6	950	b	b	1	790	Sunday
301	D	7	650	j	j	1	746	Tuesday
301	D	8	950	h	h	1	612	Monday
301	D	9	650	k	k	1	785	Wednesday
301	D	10	1100	b	b	1	695	Sunday
301	D	11	950	l	j	0	1338	Thursday
301	D	12	650	k	k	1	887	Wednesday
301	D	13	800	l	l	1	879	Thursday
301	D	14	500	b	b	1	722	Sunday
301	D	15	1100	j	j	1	1255	Tuesday
301	D	16	1100	h	h	1	903	Monday
301	D	17	650	b	b	1	732	Sunday
301	D	18	500	h	h	1	578	Monday
301	D	19	1100	l	l	1	796	Thursday
301	D	20	800	h	h	1	652	Monday
301	D	21	950	k	k	1	772	Wednesday
301	D	22	950	j	j	1	1756	Tuesday
301	D	23	800	b	b	1	642	Sunday
301	D	24	800	k	k	1	810	Wednesday
301	D	25	650	h	h	1	557	Monday
301	D	26	500	l	k	0	769	Thursday
301	D	27	800	b	l	0	565	Sunday
301	D	28	650	h	k	0	615	Monday
301	D	29	500	b	b	1	623	Sunday
301	D	30	500	k	k	1	711	Wednesday
301	D	31	950	l	l	1	3341	Thursday
301	D	32	1100	j	j	1	893	Tuesday
301	D	33	1100	k	k	1	666	Wednesday
301	D	34	950	b	b	1	525	Sunday
301	D	35	800	l	l	1	1605	Thursday
301	D	36	950	j	j	1	988	Tuesday
301	D	37	650	b	b	1	732	Sunday
301	D	38	1100	k	k	1	985	Wednesday
301	D	39	500	l	l	1	1241	Thursday
301	D	40	500	h	h	1	886	Monday
301	D	41	950	k	k	1	671	Wednesday
301	D	42	500	j	j	1	673	Tuesday
301	D	43	1100	h	h	1	580	Monday
301	D	44	800	j	j	1	911	Tuesday
301	D	45	800	k	k	1	620	Wednesday
301	D	46	1100	b	b	1	916	Sunday
301	D	47	650	l	l	1	1012	Thursday
301	D	48	800	h	h	1	636	Monday
301	D	49	650	j	j	1	892	Tuesday
301	D	50	650	l	l	1	735	Thursday
301	E	1	950	j	j	1	590	Tuesday
301	E	2	800	b	b	1	635	Sunday
301	E	3	800	k	k	1	736	Wednesday
301	E	4	650	h	h	1	614	Monday
301	E	5	500	l	l	1	1054	Thursday
301	E	6	800	b	b	1	536	Sunday
301	E	7	650	h	h	1	590	Monday
301	E	8	500	b	b	1	1312	Sunday
301	E	9	500	k	k	1	915	Wednesday
301	E	10	950	l	l	1	504	Thursday
301	E	11	1100	j	j	1	984	Tuesday
301	E	12	1100	k	k	1	696	Wednesday
301	E	13	950	b	b	1	2371	Sunday
301	E	14	800	l	l	1	555	Thursday
301	E	15	950	j	j	1	568	Tuesday
301	E	16	650	b	b	1	995	Sunday
301	E	17	1100	k	k	1	1254	Wednesday
301	E	18	500	l	l	1	510	Thursday
301	E	19	500	h	h	1	920	Monday
301	E	20	950	k	k	1	744	Wednesday
301	E	21	500	j	j	1	712	Tuesday
301	E	22	1100	h	h	1	707	Monday
301	E	23	800	j	j	1	1032	Tuesday
301	E	24	800	k	k	1	526	Wednesday
301	E	25	1100	b	b	1	539	Sunday
301	E	26	500	j	j	1	643	Tuesday
301	E	27	650	l	k	0	518	Thursday
301	E	28	800	h	h	1	579	Monday
301	E	29	650	j	j	1	665	Tuesday
301	E	30	650	l	l	1	822	Thursday
301	E	31	650	j	j	1	595	Tuesday
301	E	32	950	h	h	1	521	Monday
301	E	33	650	k	k	1	755	Wednesday
301	E	34	1100	b	b	1	478	Sunday
301	E	35	950	l	l	1	587	Thursday
301	E	36	650	k	k	1	635	Wednesday
301	E	37	800	l	l	1	1081	Thursday
301	E	38	500	b	b	1	918	Sunday
301	E	39	1100	j	j	1	537	Tuesday
301	E	40	1100	h	h	1	569	Monday
301	E	41	650	b	b	1	538	Sunday
301	E	42	500	h	h	1	698	Monday
301	E	43	1100	l	l	1	610	Thursday
301	E	44	500	k	k	1	744	Wednesday
301	E	45	950	b	b	1	1018	Sunday
301	E	46	800	h	h	1	653	Monday
301	E	47	950	k	k	1	1309	Wednesday
301	E	48	800	j	j	1	674	Tuesday
301	E	49	1100	l	l	1	541	Thursday
301	E	50	950	h	h	1	704	Monday
301	F	1	950	h	h	1	517	Wednesday
301	F	2	800	k	k	1	586	Monday
301	F	3	950	l	l	1	500	Sunday
301	F	4	500	h	h	1	692	Wednesday
301	F	5	1100	b	b	1	642	Thursday
301	F	6	500	k	k	1	695	Monday
301	F	7	650	l	l	1	484	Sunday
301	F	8	1100	k	k	1	498	Monday
301	F	9	1100	j	j	1	706	Tuesday
301	F	10	500	l	l	1	482	Sunday
301	F	11	800	b	b	1	570	Thursday
301	F	12	650	h	h	1	932	Wednesday
301	F	13	950	b	b	1	748	Thursday
301	F	14	1100	l	l	1	527	Sunday
301	F	15	650	h	h	1	738	Wednesday
301	F	16	950	k	k	1	652	Monday
301	F	17	650	j	j	1	919	Tuesday
301	F	18	650	b	h	0	487	Thursday
301	F	19	650	j	j	1	578	Tuesday
301	F	20	950	h	h	1	596	Wednesday
301	F	21	800	j	j	1	722	Tuesday
301	F	22	1100	l	l	1	535	Sunday
301	F	23	800	h	h	1	634	Wednesday
301	F	24	950	k	k	1	591	Monday
301	F	25	1100	b	b	1	498	Thursday
301	F	26	800	j	j	1	789	Tuesday
301	F	27	1100	k	k	1	631	Monday
301	F	28	500	j	j	1	642	Tuesday
301	F	29	500	k	k	1	719	Monday
301	F	30	500	b	b	1	826	Thursday
301	F	31	1100	h	h	1	1058	Wednesday
301	F	32	650	l	l	1	815	Sunday
301	F	33	950	j	j	1	698	Tuesday
301	F	34	800	b	j	0	661	Thursday
301	F	35	950	l	l	1	599	Sunday
301	F	36	1100	h	h	1	802	Wednesday
301	F	37	1100	j	j	1	687	Tuesday
301	F	38	950	b	b	1	583	Thursday
301	F	39	500	h	h	1	687	Wednesday
301	F	40	500	l	l	1	533	Sunday
301	F	41	650	k	k	1	639	Monday
301	F	42	800	l	l	1	517	Sunday
301	F	43	500	b	b	1	943	Thursday
301	F	44	650	k	k	1	1045	Monday
301	F	45	800	h	h	1	589	Wednesday
301	F	46	800	l	l	1	594	Sunday
301	F	47	950	j	j	1	663	Tuesday
301	F	48	800	k	k	1	570	Monday
301	F	49	650	b	b	1	765	Thursday
301	F	50	500	j	j	1	698	Tuesday
301	G	1	650	l	l	1	577	Thursday
301	G	2	650	j	j	1	753	Tuesday
301	G	3	800	h	h	1	620	Monday
301	G	4	650	l	l	1	715	Thursday
301	G	5	1100	b	b	1	505	Sunday
301	G	6	800	k	k	1	675	Wednesday
301	G	7	800	j	j	1	697	Tuesday
301	G	8	1100	h	h	1	905	Monday
301	G	9	500	j	j	1	830	Tuesday
301	G	10	950	k	k	1	574	Wednesday
301	G	11	500	h	h	1	603	Monday
301	G	12	500	l	l	1	1377	Thursday
301	G	13	1100	k	k	1	534	Wednesday
301	G	14	650	b	h	0	1163	Sunday
301	G	15	950	j	j	1	902	Tuesday
301	G	16	800	l	l	1	791	Thursday
301	G	17	950	b	b	1	809	Sunday
301	G	18	1100	k	k	1	547	Wednesday
301	G	19	1100	j	j	1	753	Tuesday
301	G	20	950	l	l	1	657	Thursday
301	G	21	500	k	k	1	666	Wednesday
301	G	22	500	b	b	1	1217	Sunday
301	G	23	650	h	h	1	630	Monday
301	G	24	800	b	b	1	622	Sunday
301	G	25	500	l	b	0	711	Thursday
301	G	26	650	h	h	1	678	Monday
301	G	27	800	k	k	1	574	Wednesday
301	G	28	800	b	b	1	551	Sunday
301	G	29	950	j	j	1	732	Tuesday
301	G	30	950	k	k	1	668	Wednesday
301	G	31	800	h	h	1	548	Monday
301	G	32	1100	l	l	1	665	Thursday
301	G	33	500	h	h	1	843	Monday
301	G	34	650	b	b	1	974	Sunday
301	G	35	1100	h	h	1	678	Monday
301	G	36	1100	j	j	1	825	Tuesday
301	G	37	500	b	b	1	745	Sunday
301	G	38	800	l	l	1	774	Thursday
301	G	39	650	k	k	1	681	Wednesday
301	G	40	950	l	l	1	873	Thursday
301	G	41	1100	b	b	1	414	Sunday
301	G	42	650	k	k	1	481	Wednesday
301	G	43	950	h	h	1	606	Monday
301	G	44	650	j	j	1	644	Tuesday
301	G	45	950	b	b	1	358	Sunday
301	G	46	500	k	k	1	513	Wednesday
301	G	47	500	j	j	1	1108	Tuesday
301	G	48	950	h	h	1	449	Monday
301	G	49	1100	l	l	1	974	Thursday
301	G	50	800	j	j	1	791	Tuesday
301	H	1	800	j	j	1	1634	Tuesday
301	H	2	1100	b	b	1	785	Thursday
301	H	3	950	k	k	1	535	Monday
301	H	4	500	j	j	1	873	Tuesday
301	H	5	500	h	h	1	1116	Wednesday
301	H	6	950	l	l	1	812	Sunday
301	H	7	650	j	j	1	1015	Tuesday
301	H	8	950	k	k	1	655	Monday
301	H	9	650	h	h	1	767	Wednesday
301	H	10	1100	l	l	1	450	Sunday
301	H	11	950	b	b	1	785	Thursday
301	H	12	650	h	h	1	692	Wednesday
301	H	13	800	b	b	1	743	Thursday
301	H	14	500	l	l	1	529	Sunday
301	H	15	1100	j	j	1	898	Tuesday
301	H	16	1100	k	k	1	895	Monday
301	H	17	650	l	l	1	788	Sunday
301	H	18	500	k	k	1	639	Monday
301	H	19	1100	b	b	1	713	Thursday
301	H	20	800	k	k	1	545	Monday
301	H	21	950	h	h	1	1481	Wednesday
301	H	22	950	j	j	1	814	Tuesday
301	H	23	800	l	l	1	612	Sunday
301	H	24	800	h	h	1	591	Wednesday
301	H	25	650	k	k	1	535	Monday
301	H	26	500	b	b	1	828	Thursday
301	H	27	800	l	l	1	1143	Sunday
301	H	28	650	k	k	1	607	Monday
301	H	29	500	l	l	1	658	Sunday
301	H	30	500	h	h	1	2588	Wednesday
301	H	31	950	b	b	1	1281	Thursday
301	H	32	1100	j	j	1	601	Tuesday
301	H	33	1100	h	h	1	559	Wednesday
301	H	34	950	l	l	1	673	Sunday
301	H	35	800	b	b	1	657	Thursday
301	H	36	950	j	j	1	530	Tuesday
301	H	37	650	l	l	1	498	Sunday
301	H	38	1100	h	h	1	705	Wednesday
301	H	39	500	b	b	1	982	Thursday
301	H	40	500	k	k	1	580	Monday
301	H	41	950	h	h	1	655	Wednesday
301	H	42	500	j	j	1	1036	Tuesday
301	H	43	1100	k	k	1	604	Monday
301	H	44	800	j	j	1	684	Tuesday
301	H	45	800	h	h	1	1140	Wednesday
301	H	46	1100	l	l	1	599	Sunday
301	H	47	650	b	b	1	841	Thursday
301	H	48	800	k	k	1	593	Monday
301	H	49	650	j	j	1	729	Tuesday
301	H	50	650	b	b	1	858	Thursday
302	A	1	950	k	k	1	524	Wednesday
302	A	2	800	h	h	1	497	Monday
302	A	3	950	b	b	1	457	Sunday
302	A	4	500	k	k	1	486	Wednesday
302	A	5	1100	l	l	1	497	Thursday
302	A	6	500	h	h	1	454	Monday
302	A	7	650	b	b	1	481	Sunday
302	A	8	1100	j	j	1	420	Tuesday
302	A	9	800	l	l	1	588	Thursday
302	A	10	1100	h	h	1	452	Monday
302	A	11	500	b	b	1	569	Sunday
302	A	12	650	k	k	1	673	Wednesday
302	A	13	950	l	l	1	564	Thursday
302	A	14	1100	b	b	1	462	Sunday
302	A	15	650	k	k	1	449	Wednesday
302	A	16	950	h	h	1	406	Monday
302	A	17	650	j	j	1	470	Tuesday
302	A	18	650	l	l	1	596	Thursday
302	A	19	650	j	j	1	489	Tuesday
302	A	20	950	k	k	1	398	Wednesday
302	A	21	800	j	j	1	508	Tuesday
302	A	22	1100	b	b	1	436	Sunday
302	A	23	800	k	k	1	494	Wednesday
302	A	24	950	h	h	1	463	Monday
302	A	25	1100	l	l	1	580	Thursday
302	A	26	800	j	j	1	484	Tuesday
302	A	27	1100	h	h	1	415	Monday
302	A	28	500	j	j	1	484	Tuesday
302	A	29	500	h	h	1	471	Monday
302	A	30	500	l	l	1	591	Thursday
302	A	31	1100	k	k	1	487	Wednesday
302	A	32	650	b	b	1	423	Sunday
302	A	33	950	j	j	1	479	Tuesday
302	A	34	800	l	l	1	572	Thursday
302	A	35	950	b	b	1	548	Sunday
302	A	36	1100	k	k	1	452	Wednesday
302	A	37	1100	j	j	1	481	Tuesday
302	A	38	950	l	l	1	463	Thursday
302	A	39	500	k	k	1	468	Wednesday
302	A	40	500	b	b	1	524	Sunday
302	A	41	650	h	h	1	468	Monday
302	A	42	800	b	b	1	487	Sunday
302	A	43	500	l	l	1	585	Thursday
302	A	44	650	h	h	1	551	Monday
302	A	45	800	k	k	1	553	Wednesday
302	A	46	800	b	b	1	412	Sunday
302	A	47	950	j	j	1	476	Tuesday
302	A	48	800	h	h	1	575	Monday
302	A	49	650	l	l	1	673	Thursday
302	A	50	500	j	j	1	513	Tuesday
302	B	1	650	b	b	1	687	Thursday
302	B	2	650	j	j	1	538	Tuesday
302	B	3	800	k	k	1	525	Monday
302	B	4	650	b	b	1	695	Thursday
302	B	5	1100	l	l	1	479	Sunday
302	B	6	800	h	h	1	436	Wednesday
302	B	7	800	j	j	1	529	Tuesday
302	B	8	1100	k	k	1	438	Monday
302	B	9	500	j	j	1	617	Tuesday
302	B	10	950	h	h	1	484	Wednesday
302	B	11	500	k	k	1	595	Monday
302	B	12	500	b	b	1	577	Thursday
302	B	13	1100	h	h	1	553	Wednesday
302	B	14	650	l	l	1	497	Sunday
302	B	15	950	j	j	1	596	Tuesday
302	B	16	800	b	b	1	577	Thursday
302	B	17	950	l	l	1	452	Sunday
302	B	18	1100	h	h	1	497	Wednesday
302	B	19	1100	j	j	1	513	Tuesday
302	B	20	950	b	b	1	526	Thursday
302	B	21	500	h	h	1	620	Wednesday
302	B	22	500	l	l	1	524	Sunday
302	B	23	650	k	k	1	708	Monday
302	B	24	800	l	l	1	524	Sunday
302	B	25	500	b	b	1	617	Thursday
302	B	26	650	k	k	1	766	Monday
302	B	27	800	h	h	1	590	Wednesday
302	B	28	800	l	l	1	516	Sunday
302	B	29	950	j	j	1	417	Tuesday
302	B	30	950	h	h	1	492	Wednesday
302	B	31	800	k	k	1	714	Monday
302	B	32	1100	b	b	1	489	Thursday
302	B	33	500	k	k	1	503	Monday
302	B	34	650	l	l	1	468	Sunday
302	B	35	1100	k	k	1	519	Monday
302	B	36	1100	j	j	1	457	Tuesday
302	B	37	500	l	l	1	505	Sunday
302	B	38	800	b	b	1	714	Thursday
302	B	39	650	h	h	1	463	Wednesday
302	B	40	950	b	b	1	593	Thursday
302	B	41	1100	l	l	1	500	Sunday
302	B	42	650	h	h	1	481	Wednesday
302	B	43	950	k	k	1	497	Monday
302	B	44	650	j	j	1	601	Tuesday
302	B	45	950	l	l	1	476	Sunday
302	B	46	500	h	h	1	503	Wednesday
302	B	47	500	j	j	1	591	Tuesday
302	B	48	950	k	k	1	500	Monday
302	B	49	1100	b	b	1	714	Thursday
302	B	50	800	j	j	1	692	Tuesday
302	C	1	950	j	j	1	614	Tuesday
302	C	2	800	l	l	1	518	Sunday
302	C	3	800	h	h	1	693	Wednesday
302	C	4	650	k	k	1	558	Monday
302	C	5	500	b	b	1	560	Thursday
302	C	6	800	l	l	1	598	Sunday
302	C	7	650	k	k	1	486	Monday
302	C	8	500	l	l	1	499	Sunday
302	C	9	500	h	h	1	499	Wednesday
302	C	10	950	b	b	1	534	Thursday
302	C	11	1100	j	j	1	677	Tuesday
302	C	12	1100	h	h	1	435	Wednesday
302	C	13	950	l	l	1	488	Sunday
302	C	14	800	b	h	0	584	Thursday
302	C	15	950	j	j	1	579	Tuesday
302	C	16	650	l	l	1	686	Sunday
302	C	17	1100	h	h	1	432	Wednesday
302	C	18	500	b	b	1	602	Thursday
302	C	19	500	k	k	1	693	Monday
302	C	20	950	h	h	1	754	Wednesday
302	C	21	500	j	j	1	469	Tuesday
302	C	22	1100	k	k	1	847	Monday
302	C	23	800	j	j	1	681	Tuesday
302	C	24	800	h	h	1	685	Wednesday
302	C	25	1100	l	l	1	514	Sunday
302	C	26	500	j	j	1	605	Tuesday
302	C	27	650	b	b	1	687	Thursday
302	C	28	800	k	k	1	535	Monday
302	C	29	650	j	j	1	605	Tuesday
302	C	30	650	b	b	1	567	Thursday
302	C	31	650	j	j	1	684	Tuesday
302	C	32	950	k	k	1	591	Monday
302	C	33	650	h	h	1	495	Wednesday
302	C	34	1100	l	l	1	527	Sunday
302	C	35	950	b	b	1	527	Thursday
302	C	36	650	h	h	1	578	Wednesday
302	C	37	800	b	b	1	699	Thursday
302	C	38	500	l	l	1	567	Sunday
302	C	39	1100	j	j	1	699	Tuesday
302	C	40	1100	k	k	1	693	Monday
302	C	41	650	l	l	1	691	Sunday
302	C	42	500	k	k	1	493	Monday
302	C	43	1100	b	b	1	498	Thursday
302	C	44	500	h	h	1	578	Wednesday
302	C	45	950	l	l	1	493	Sunday
302	C	46	800	k	k	1	597	Monday
302	C	47	950	h	h	1	586	Wednesday
302	C	48	800	j	j	1	573	Tuesday
302	C	49	1100	b	b	1	658	Thursday
302	C	50	950	k	k	1	837	Monday
302	D	1	800	j	j	1	587	Tuesday
302	D	2	1100	l	l	1	734	Thursday
302	D	3	950	h	h	1	665	Monday
302	D	4	500	j	j	1	641	Tuesday
302	D	5	500	k	k	1	598	Wednesday
302	D	6	950	b	b	1	515	Sunday
302	D	7	650	j	j	1	579	Tuesday
302	D	8	950	h	h	1	550	Monday
302	D	9	650	k	k	1	598	Wednesday
302	D	10	1100	b	b	1	513	Sunday
302	D	11	950	l	l	1	670	Thursday
302	D	12	650	k	k	1	558	Wednesday
302	D	13	800	l	l	1	763	Thursday
302	D	14	500	b	b	1	617	Sunday
302	D	15	1100	j	j	1	601	Tuesday
302	D	16	1100	h	h	1	646	Monday
302	D	17	650	b	b	1	625	Sunday
302	D	18	500	h	h	1	763	Monday
302	D	19	1100	l	l	1	627	Thursday
302	D	20	800	h	h	1	585	Monday
302	D	21	950	k	k	1	765	Wednesday
302	D	22	950	j	j	1	601	Tuesday
302	D	23	800	b	b	1	529	Sunday
302	D	24	800	k	k	1	561	Wednesday
302	D	25	650	h	h	1	499	Monday
302	D	26	500	l	l	1	683	Thursday
302	D	27	800	b	b	1	563	Sunday
302	D	28	650	h	h	1	430	Monday
302	D	29	500	b	b	1	513	Sunday
302	D	30	500	k	k	1	555	Wednesday
302	D	31	950	l	l	1	553	Thursday
302	D	32	1100	j	j	1	523	Tuesday
302	D	33	1100	k	k	1	529	Wednesday
302	D	34	950	b	b	1	513	Sunday
302	D	35	800	l	l	1	590	Thursday
302	D	36	950	j	j	1	595	Tuesday
302	D	37	650	b	b	1	547	Sunday
302	D	38	1100	k	k	1	494	Wednesday
302	D	39	500	l	l	1	670	Thursday
302	D	40	500	h	h	1	576	Monday
302	D	41	950	k	k	1	578	Wednesday
302	D	42	500	j	j	1	514	Tuesday
302	D	43	1100	h	h	1	509	Monday
302	D	44	800	j	j	1	570	Tuesday
302	D	45	800	k	k	1	794	Wednesday
302	D	46	1100	b	b	1	533	Sunday
302	D	47	650	l	l	1	1088	Thursday
302	D	48	800	h	h	1	480	Monday
302	D	49	650	j	j	1	680	Tuesday
302	D	50	650	l	l	1	608	Thursday
302	E	1	950	j	j	1	491	Tuesday
302	E	2	800	b	b	1	395	Sunday
302	E	3	800	k	k	1	400	Wednesday
302	E	4	650	h	h	1	400	Monday
302	E	5	500	l	l	1	627	Thursday
302	E	6	800	b	b	1	446	Sunday
302	E	7	650	h	h	1	384	Monday
302	E	8	500	b	b	1	400	Sunday
302	E	9	500	k	k	1	475	Wednesday
302	E	10	950	l	l	1	392	Thursday
302	E	11	1100	j	j	1	507	Tuesday
302	E	12	1100	k	k	1	443	Wednesday
302	E	13	950	b	b	1	411	Sunday
302	E	14	800	l	l	1	459	Thursday
302	E	15	950	j	j	1	398	Tuesday
302	E	16	650	b	b	1	422	Sunday
302	E	17	1100	k	k	1	454	Wednesday
302	E	18	500	l	l	1	451	Thursday
302	E	19	500	h	h	1	416	Monday
302	E	20	950	k	k	1	451	Wednesday
302	E	21	500	j	j	1	456	Tuesday
302	E	22	1100	h	h	1	392	Monday
302	E	23	800	j	j	1	446	Tuesday
302	E	24	800	k	k	1	590	Wednesday
302	E	25	1100	b	b	1	432	Sunday
302	E	26	500	j	j	1	498	Tuesday
302	E	27	650	l	l	1	463	Thursday
302	E	28	800	h	h	1	490	Monday
302	E	29	650	j	j	1	445	Tuesday
302	E	30	650	l	l	1	535	Thursday
302	E	31	650	j	j	1	461	Tuesday
302	E	32	950	h	h	1	447	Monday
302	E	33	650	k	k	1	418	Wednesday
302	E	34	1100	b	b	1	418	Sunday
302	E	35	950	l	l	1	565	Thursday
302	E	36	650	k	k	1	503	Wednesday
302	E	37	800	l	l	1	490	Thursday
302	E	38	500	b	b	1	447	Sunday
302	E	39	1100	j	j	1	509	Tuesday
302	E	40	1100	h	h	1	399	Monday
302	E	41	650	b	b	1	455	Sunday
302	E	42	500	h	h	1	504	Monday
302	E	43	1100	l	l	1	480	Thursday
302	E	44	500	k	j	0	450	Wednesday
302	E	45	950	b	b	1	522	Sunday
302	E	46	800	h	h	1	490	Monday
302	E	47	950	k	k	1	482	Wednesday
302	E	48	800	j	j	1	514	Tuesday
302	E	49	1100	l	l	1	469	Thursday
302	E	50	950	h	h	1	482	Monday
302	F	1	950	h	h	1	509	Wednesday
302	F	2	800	k	k	1	490	Monday
302	F	3	950	l	l	1	378	Sunday
302	F	4	500	h	h	1	522	Wednesday
302	F	5	1100	b	b	1	479	Thursday
302	F	6	500	k	k	1	546	Monday
302	F	7	650	l	l	1	415	Sunday
302	F	8	1100	k	k	1	511	Monday
302	F	9	1100	j	j	1	458	Tuesday
302	F	10	500	l	l	1	442	Sunday
302	F	11	800	b	b	1	522	Thursday
302	F	12	650	h	h	1	349	Wednesday
302	F	13	950	b	b	1	506	Thursday
302	F	14	1100	l	l	1	434	Sunday
302	F	15	650	h	h	1	530	Wednesday
302	F	16	950	k	k	1	458	Monday
302	F	17	650	j	j	1	431	Tuesday
302	F	18	650	b	b	1	479	Thursday
302	F	19	650	j	j	1	471	Tuesday
302	F	20	950	h	h	1	717	Wednesday
302	F	21	800	j	j	1	498	Tuesday
302	F	22	1100	l	l	1	442	Sunday
302	F	23	800	h	h	1	458	Wednesday
302	F	24	950	k	k	1	436	Monday
302	F	25	1100	b	b	1	471	Thursday
302	F	26	800	j	j	1	428	Tuesday
302	F	27	1100	k	k	1	439	Monday
302	F	28	500	j	j	1	585	Tuesday
302	F	29	500	k	k	1	497	Monday
302	F	30	500	b	b	1	489	Thursday
302	F	31	1100	h	h	1	399	Wednesday
302	F	32	650	l	l	1	447	Sunday
302	F	33	950	j	j	1	559	Tuesday
302	F	34	800	b	b	1	524	Thursday
302	F	35	950	l	l	1	436	Sunday
302	F	36	1100	h	h	1	487	Wednesday
302	F	37	1100	j	j	1	412	Tuesday
302	F	38	950	b	b	1	460	Thursday
302	F	39	500	h	h	1	484	Wednesday
302	F	40	500	l	l	1	465	Sunday
302	F	41	650	k	k	1	535	Monday
302	F	42	800	l	l	1	409	Sunday
302	F	43	500	b	b	1	455	Thursday
302	F	44	650	k	k	1	452	Monday
302	F	45	800	h	h	1	628	Wednesday
302	F	46	800	l	l	1	425	Sunday
302	F	47	950	j	j	1	452	Tuesday
302	F	48	800	k	k	1	628	Monday
302	F	49	650	b	b	1	500	Thursday
302	F	50	500	j	j	1	492	Tuesday
302	G	1	650	l	l	1	520	Thursday
302	G	2	650	j	j	1	480	Tuesday
302	G	3	800	h	h	1	357	Monday
302	G	4	650	l	l	1	597	Thursday
302	G	5	1100	b	b	1	496	Sunday
302	G	6	800	k	k	1	482	Wednesday
302	G	7	800	j	j	1	426	Tuesday
302	G	8	1100	h	h	1	386	Monday
302	G	9	500	j	j	1	530	Tuesday
302	G	10	950	k	k	1	418	Wednesday
302	G	11	500	h	h	1	450	Monday
302	G	12	500	l	l	1	479	Thursday
302	G	13	1100	k	k	1	474	Wednesday
302	G	14	650	b	b	1	506	Sunday
302	G	15	950	j	j	1	501	Tuesday
302	G	16	800	l	l	1	631	Thursday
302	G	17	950	b	b	1	461	Sunday
302	G	18	1100	k	k	1	517	Wednesday
302	G	19	1100	j	j	1	391	Tuesday
302	G	20	950	l	l	1	525	Thursday
302	G	21	500	k	k	1	450	Wednesday
302	G	22	500	b	b	1	487	Sunday
302	G	23	650	h	h	1	562	Monday
302	G	24	800	b	b	1	466	Sunday
302	G	25	500	l	l	1	538	Thursday
302	G	26	650	h	h	1	447	Monday
302	G	27	800	k	k	1	535	Wednesday
302	G	28	800	b	b	1	450	Sunday
302	G	29	950	j	j	1	474	Tuesday
302	G	30	950	k	k	1	503	Wednesday
302	G	31	800	h	h	1	386	Monday
302	G	32	1100	l	l	1	418	Thursday
302	G	33	500	h	h	1	434	Monday
302	G	34	650	b	b	1	426	Sunday
302	G	35	1100	h	h	1	346	Monday
302	G	36	1100	j	j	1	458	Tuesday
302	G	37	500	b	b	1	514	Sunday
302	G	38	800	l	l	1	727	Thursday
302	G	39	650	k	k	1	442	Wednesday
302	G	40	950	l	l	1	554	Thursday
302	G	41	1100	b	b	1	469	Sunday
302	G	42	650	k	k	1	485	Wednesday
302	G	43	950	h	h	1	405	Monday
302	G	44	650	j	j	1	455	Tuesday
302	G	45	950	b	b	1	418	Sunday
302	G	46	500	k	k	1	698	Wednesday
302	G	47	500	j	j	1	458	Tuesday
302	G	48	950	h	h	1	429	Monday
302	G	49	1100	l	l	1	510	Thursday
302	G	50	800	j	j	1	420	Tuesday
302	H	1	800	j	j	1	500	Tuesday
302	H	2	1100	b	b	1	500	Thursday
302	H	3	950	k	k	1	462	Monday
302	H	4	500	j	j	1	534	Tuesday
302	H	5	500	h	h	1	382	Wednesday
302	H	6	950	l	l	1	728	Sunday
302	H	7	650	j	j	1	483	Tuesday
302	H	8	950	k	k	1	491	Monday
302	H	9	650	h	h	1	478	Wednesday
302	H	10	1100	l	l	1	488	Sunday
302	H	11	950	b	b	1	472	Thursday
302	H	12	650	h	h	1	520	Wednesday
302	H	13	800	b	b	1	544	Thursday
302	H	14	500	l	l	1	480	Sunday
302	H	15	1100	j	j	1	454	Tuesday
302	H	16	1100	k	k	1	470	Monday
302	H	17	650	l	l	1	510	Sunday
302	H	18	500	k	k	1	536	Monday
302	H	19	1100	b	b	1	472	Thursday
302	H	20	800	k	k	1	470	Monday
302	H	21	950	h	h	1	459	Wednesday
302	H	22	950	j	j	1	438	Tuesday
302	H	23	800	l	l	1	539	Sunday
302	H	24	800	h	h	1	494	Wednesday
302	H	25	650	k	k	1	643	Monday
302	H	26	500	b	b	1	480	Thursday
302	H	27	800	l	l	1	488	Sunday
302	H	28	650	k	k	1	427	Monday
302	H	29	500	l	l	1	486	Sunday
302	H	30	500	h	h	1	403	Wednesday
302	H	31	950	b	b	1	459	Thursday
302	H	32	1100	j	j	1	475	Tuesday
302	H	33	1100	h	h	1	478	Wednesday
302	H	34	950	l	l	1	531	Sunday
302	H	35	800	b	b	1	491	Thursday
302	H	36	950	j	j	1	515	Tuesday
302	H	37	650	l	l	1	483	Sunday
302	H	38	1100	h	h	1	488	Wednesday
302	H	39	500	b	b	1	510	Thursday
302	H	40	500	k	k	1	488	Monday
302	H	41	950	h	h	1	496	Wednesday
302	H	42	500	j	j	1	440	Tuesday
302	H	43	1100	k	k	1	507	Monday
302	H	44	800	j	j	1	494	Tuesday
302	H	45	800	h	h	1	430	Wednesday
302	H	46	1100	l	l	1	536	Sunday
302	H	47	650	b	b	1	518	Thursday
302	H	48	800	k	k	1	866	Monday
302	H	49	650	j	j	1	415	Tuesday
302	H	50	650	b	b	1	597	Thursday
303	A	1	950	k	k	1	1065	Wednesday
303	A	2	800	h	h	1	672	Monday
303	A	3	950	b	b	1	573	Sunday
303	A	4	500	k	k	1	829	Wednesday
303	A	5	1100	l	l	1	680	Thursday
303	A	6	500	h	h	1	653	Monday
303	A	7	650	b	b	1	595	Sunday
303	A	8	1100	j	j	1	965	Tuesday
303	A	9	800	l	l	1	765	Thursday
303	A	10	1100	h	h	1	651	Monday
303	A	11	500	b	b	1	608	Sunday
303	A	12	650	k	k	1	683	Wednesday
303	A	13	950	l	l	1	635	Thursday
303	A	14	1100	b	b	1	893	Sunday
303	A	15	650	k	k	1	755	Wednesday
303	A	16	950	h	h	1	672	Monday
303	A	17	650	j	k	0	584	Tuesday
303	A	18	650	l	l	1	765	Thursday
303	A	19	650	j	j	1	768	Tuesday
303	A	20	950	k	l	0	960	Wednesday
303	A	21	800	j	j	1	776	Tuesday
303	A	22	1100	b	b	1	776	Sunday
303	A	23	800	k	k	1	603	Wednesday
303	A	24	950	h	h	1	675	Monday
303	A	25	1100	l	l	1	630	Thursday
303	A	26	800	j	j	1	707	Tuesday
303	A	27	1100	h	h	1	598	Monday
303	A	28	500	j	k	0	824	Tuesday
303	A	29	500	h	h	1	648	Monday
303	A	30	500	l	l	1	872	Thursday
303	A	31	1100	k	k	1	750	Wednesday
303	A	32	650	b	b	1	590	Sunday
303	A	33	950	j	j	1	523	Tuesday
303	A	34	800	l	l	1	795	Thursday
303	A	35	950	b	b	1	624	Sunday
303	A	36	1100	k	k	1	690	Wednesday
303	A	37	1100	j	j	1	675	Tuesday
303	A	38	950	l	l	1	768	Thursday
303	A	39	500	k	k	1	688	Wednesday
303	A	40	500	b	b	1	704	Sunday
303	A	41	650	h	h	1	574	Monday
303	A	42	800	b	b	1	606	Sunday
303	A	43	500	l	l	1	1133	Thursday
303	A	44	650	h	b	0	958	Monday
303	A	45	800	k	k	1	1381	Wednesday
303	A	46	800	b	b	1	1079	Sunday
303	A	47	950	j	j	1	1240	Tuesday
303	A	48	800	h	h	1	917	Monday
303	A	49	650	l	l	1	711	Thursday
303	A	50	500	j	j	1	746	Tuesday
303	B	1	650	b	b	1	817	Thursday
303	B	2	650	j	j	1	1102	Tuesday
303	B	3	800	k	k	1	833	Monday
303	B	4	650	b	b	1	1977	Thursday
303	B	5	1100	l	l	1	577	Sunday
303	B	6	800	h	h	1	1011	Wednesday
303	B	7	800	j	j	1	699	Tuesday
303	B	8	1100	k	k	1	555	Monday
303	B	9	500	j	j	1	822	Tuesday
303	B	10	950	h	h	1	937	Wednesday
303	B	11	500	k	k	1	815	Monday
303	B	12	500	b	b	1	1417	Thursday
303	B	13	1100	h	h	1	873	Wednesday
303	B	14	650	l	l	1	865	Sunday
303	B	15	950	j	j	1	1475	Tuesday
303	B	16	800	b	b	1	1209	Thursday
303	B	17	950	l	l	1	473	Sunday
303	B	18	1100	h	h	1	948	Wednesday
303	B	19	1100	j	j	1	1166	Tuesday
303	B	20	950	b	b	1	670	Thursday
303	B	21	500	h	h	1	873	Wednesday
303	B	22	500	l	l	1	780	Sunday
303	B	23	650	k	k	1	713	Monday
303	B	24	800	l	l	1	534	Sunday
303	B	25	500	b	h	0	718	Thursday
303	B	26	650	k	k	1	1526	Monday
303	B	27	800	h	h	1	806	Wednesday
303	B	28	800	l	l	1	678	Sunday
303	B	29	950	j	j	1	2244	Tuesday
303	B	30	950	h	h	1	1260	Wednesday
303	B	31	800	k	k	1	694	Monday
303	B	32	1100	b	b	1	766	Thursday
303	B	33	500	k	k	1	1099	Monday
303	B	34	650	l	l	1	840	Sunday
303	B	35	1100	k	k	1	637	Monday
303	B	36	1100	j	j	1	1336	Tuesday
303	B	37	500	l	l	1	536	Sunday
303	B	38	800	b	b	1	875	Thursday
303	B	39	650	h	h	1	635	Wednesday
303	B	40	950	b	b	1	1200	Thursday
303	B	41	1100	l	l	1	629	Sunday
303	B	42	650	h	h	1	677	Wednesday
303	B	43	950	k	k	1	843	Monday
303	B	44	650	j	j	1	1997	Tuesday
303	B	45	950	l	l	1	635	Sunday
303	B	46	500	h	h	1	1141	Wednesday
303	B	47	500	j	j	1	1198	Tuesday
303	B	48	950	k	k	1	811	Monday
303	B	49	1100	b	b	1	760	Thursday
303	B	50	800	j	j	1	1240	Tuesday
303	C	1	950	j	j	1	782	Tuesday
303	C	2	800	l	l	1	529	Sunday
303	C	3	800	h	h	1	729	Wednesday
303	C	4	650	k	k	1	659	Monday
303	C	5	500	b	b	1	747	Thursday
303	C	6	800	l	l	1	577	Sunday
303	C	7	650	k	k	1	390	Monday
303	C	8	500	l	l	1	577	Sunday
303	C	9	500	h	b	0	585	Wednesday
303	C	10	950	b	b	1	685	Thursday
303	C	11	1100	j	j	1	854	Tuesday
303	C	12	1100	h	h	1	414	Wednesday
303	C	13	950	l	l	1	521	Sunday
303	C	14	800	b	b	1	657	Thursday
303	C	15	950	j	j	1	947	Tuesday
303	C	16	650	l	l	1	677	Sunday
303	C	17	1100	h	h	1	1014	Wednesday
303	C	18	500	b	b	1	680	Thursday
303	C	19	500	k	k	1	705	Monday
303	C	20	950	h	h	1	843	Wednesday
303	C	21	500	j	j	1	817	Tuesday
303	C	22	1100	k	k	1	699	Monday
303	C	23	800	j	j	1	817	Tuesday
303	C	24	800	h	h	1	379	Wednesday
303	C	25	1100	l	l	1	697	Sunday
303	C	26	500	j	j	1	1318	Tuesday
303	C	27	650	b	b	1	766	Thursday
303	C	28	800	k	k	1	1406	Monday
303	C	29	650	j	h	0	695	Tuesday
303	C	30	650	b	b	1	702	Thursday
303	C	31	650	j	j	1	995	Tuesday
303	C	32	950	k	k	1	576	Monday
303	C	33	650	h	h	1	717	Wednesday
303	C	34	1100	l	l	1	682	Sunday
303	C	35	950	b	b	1	429	Thursday
303	C	36	650	h	h	1	679	Wednesday
303	C	37	800	b	b	1	738	Thursday
303	C	38	500	l	l	1	570	Sunday
303	C	39	1100	j	j	1	682	Tuesday
303	C	40	1100	k	k	1	506	Monday
303	C	41	650	l	l	1	480	Sunday
303	C	42	500	k	k	1	619	Monday
303	C	43	1100	b	b	1	707	Thursday
303	C	44	500	h	h	1	587	Wednesday
303	C	45	950	l	k	0	695	Sunday
303	C	46	800	k	k	1	445	Monday
303	C	47	950	h	h	1	981	Wednesday
303	C	48	800	j	j	1	680	Tuesday
303	C	49	1100	b	b	1	697	Thursday
303	C	50	950	k	k	1	789	Monday
303	D	1	800	j	j	1	804	Tuesday
303	D	2	1100	l	l	1	553	Thursday
303	D	3	950	h	h	1	606	Monday
303	D	4	500	j	j	1	532	Tuesday
303	D	5	500	k	k	1	369	Wednesday
303	D	6	950	b	b	1	593	Sunday
303	D	7	650	j	h	0	465	Tuesday
303	D	8	950	h	h	1	532	Monday
303	D	9	650	k	k	1	686	Wednesday
303	D	10	1100	b	b	1	588	Sunday
303	D	11	950	l	l	1	705	Thursday
303	D	12	650	k	k	1	702	Wednesday
303	D	13	800	l	l	1	633	Thursday
303	D	14	500	b	b	1	644	Sunday
303	D	15	1100	j	j	1	969	Tuesday
303	D	16	1100	h	b	0	454	Monday
303	D	17	650	b	b	1	484	Sunday
303	D	18	500	h	h	1	369	Monday
303	D	19	1100	l	l	1	894	Thursday
303	D	20	800	h	h	1	641	Monday
303	D	21	950	k	k	1	913	Wednesday
303	D	22	950	j	j	1	502	Tuesday
303	D	23	800	b	b	1	753	Sunday
303	D	24	800	k	k	1	654	Wednesday
303	D	25	650	h	h	1	758	Monday
303	D	26	500	l	l	1	1230	Thursday
303	D	27	800	b	b	1	540	Sunday
303	D	28	650	h	h	1	633	Monday
303	D	29	500	b	b	1	604	Sunday
303	D	30	500	k	l	0	673	Wednesday
303	D	31	950	l	l	1	774	Thursday
303	D	32	1100	j	j	1	1286	Tuesday
303	D	33	1100	k	k	1	907	Wednesday
303	D	34	950	b	b	1	664	Sunday
303	D	35	800	l	l	1	787	Thursday
303	D	36	950	j	j	1	992	Tuesday
303	D	37	650	b	b	1	544	Sunday
303	D	38	1100	k	k	1	640	Wednesday
303	D	39	500	l	l	1	637	Thursday
303	D	40	500	h	h	1	560	Monday
303	D	41	950	k	k	1	728	Wednesday
303	D	42	500	j	h	0	734	Tuesday
303	D	43	1100	h	h	1	582	Monday
303	D	44	800	j	j	1	512	Tuesday
303	D	45	800	k	k	1	782	Wednesday
303	D	46	1100	b	b	1	742	Sunday
303	D	47	650	l	l	1	907	Thursday
303	D	48	800	h	h	1	632	Monday
303	D	49	650	j	j	1	944	Tuesday
303	D	50	650	l	l	1	694	Thursday
303	E	1	950	j	j	1	726	Tuesday
303	E	2	800	b	b	1	718	Sunday
303	E	3	800	k	l	0	1228	Wednesday
303	E	4	650	h	h	1	988	Monday
303	E	5	500	l	l	1	1422	Thursday
303	E	6	800	b	b	1	697	Sunday
303	E	7	650	h	h	1	590	Monday
303	E	8	500	b	b	1	1193	Sunday
303	E	9	500	k	k	1	988	Wednesday
303	E	10	950	l	l	1	1353	Thursday
303	E	11	1100	j	j	1	860	Tuesday
303	E	12	1100	k	k	1	652	Wednesday
303	E	13	950	b	b	1	788	Sunday
303	E	14	800	l	l	1	769	Thursday
303	E	15	950	j	j	1	912	Tuesday
303	E	16	650	b	b	1	672	Sunday
303	E	17	1100	k	k	1	531	Wednesday
303	E	18	500	l	l	1	576	Thursday
303	E	19	500	h	h	1	760	Monday
303	E	20	950	k	k	1	688	Wednesday
303	E	21	500	j	j	1	910	Tuesday
303	E	22	1100	h	h	1	544	Monday
303	E	23	800	j	k	0	523	Tuesday
303	E	24	800	k	k	1	763	Wednesday
303	E	25	1100	b	b	1	584	Sunday
303	E	26	500	j	j	1	672	Tuesday
303	E	27	650	l	l	1	728	Thursday
303	E	28	800	h	h	1	640	Monday
303	E	29	650	j	j	1	507	Tuesday
303	E	30	650	l	l	1	587	Thursday
303	E	31	650	j	j	1	747	Tuesday
303	E	32	950	h	h	1	712	Monday
303	E	33	650	k	l	0	696	Wednesday
303	E	34	1100	b	b	1	768	Sunday
303	E	35	950	l	l	1	736	Thursday
303	E	36	650	k	k	1	446	Wednesday
303	E	37	800	l	l	1	566	Thursday
303	E	38	500	b	b	1	611	Sunday
303	E	39	1100	j	j	1	992	Tuesday
303	E	40	1100	h	h	1	563	Monday
303	E	41	650	b	b	1	566	Sunday
303	E	42	500	h	h	1	403	Monday
303	E	43	1100	l	l	1	712	Thursday
303	E	44	500	k	k	1	1339	Wednesday
303	E	45	950	b	b	1	678	Sunday
303	E	46	800	h	h	1	451	Monday
303	E	47	950	k	k	1	939	Wednesday
303	E	48	800	j	j	1	486	Tuesday
303	E	49	1100	l	l	1	2179	Thursday
303	E	50	950	h	h	1	718	Monday
303	F	1	950	h	h	1	920	Wednesday
303	F	2	800	k	j	0	1285	Monday
303	F	3	950	l	l	1	765	Sunday
303	F	4	500	h	h	1	698	Wednesday
303	F	5	1100	b	b	1	650	Thursday
303	F	6	500	k	k	1	1096	Monday
303	F	7	650	l	l	1	501	Sunday
303	F	8	1100	k	k	1	525	Monday
303	F	9	1100	j	j	1	578	Tuesday
303	F	10	500	l	l	1	538	Sunday
303	F	11	800	b	b	1	869	Thursday
303	F	12	650	h	h	1	845	Wednesday
303	F	13	950	b	b	1	893	Thursday
303	F	14	1100	l	l	1	522	Sunday
303	F	15	650	h	h	1	805	Wednesday
303	F	16	950	k	k	1	797	Monday
303	F	17	650	j	j	1	573	Tuesday
303	F	18	650	b	b	1	664	Thursday
303	F	19	650	j	h	0	645	Tuesday
303	F	20	950	h	b	0	581	Wednesday
303	F	21	800	j	j	1	712	Tuesday
303	F	22	1100	l	l	1	634	Sunday
303	F	23	800	h	h	1	600	Wednesday
303	F	24	950	k	k	1	653	Monday
303	F	25	1100	b	b	1	747	Thursday
303	F	26	800	j	j	1	869	Tuesday
303	F	27	1100	k	k	1	680	Monday
303	F	28	500	j	j	1	1026	Tuesday
303	F	29	500	k	k	1	650	Monday
303	F	30	500	b	b	1	815	Thursday
303	F	31	1100	h	h	1	615	Wednesday
303	F	32	650	l	l	1	532	Sunday
303	F	33	950	j	j	1	604	Tuesday
303	F	34	800	b	b	1	684	Thursday
303	F	35	950	l	l	1	540	Sunday
303	F	36	1100	h	h	1	628	Wednesday
303	F	37	1100	j	j	1	535	Tuesday
303	F	38	950	b	b	1	786	Thursday
303	F	39	500	h	h	1	522	Wednesday
303	F	40	500	l	l	1	559	Sunday
303	F	41	650	k	j	0	591	Monday
303	F	42	800	l	l	1	556	Sunday
303	F	43	500	b	b	1	703	Thursday
303	F	44	650	k	k	1	572	Monday
303	F	45	800	h	h	1	860	Wednesday
303	F	46	800	l	l	1	543	Sunday
303	F	47	950	j	j	1	1114	Tuesday
303	F	48	800	k	k	1	687	Monday
303	F	49	650	b	b	1	634	Thursday
303	F	50	500	j	j	1	756	Tuesday
303	G	1	650	l	l	1	648	Thursday
303	G	2	650	j	j	1	1387	Tuesday
303	G	3	800	h	h	1	541	Monday
303	G	4	650	l	l	1	595	Thursday
303	G	5	1100	b	b	1	541	Sunday
303	G	6	800	k	k	1	664	Wednesday
303	G	7	800	j	j	1	691	Tuesday
303	G	8	1100	h	h	1	416	Monday
303	G	9	500	j	j	1	960	Tuesday
303	G	10	950	k	k	1	636	Wednesday
303	G	11	500	h	h	1	775	Monday
303	G	12	500	l	l	1	575	Thursday
303	G	13	1100	k	k	1	799	Wednesday
303	G	14	650	b	b	1	647	Sunday
303	G	15	950	j	j	1	647	Tuesday
303	G	16	800	l	l	1	519	Thursday
303	G	17	950	b	b	1	645	Sunday
303	G	18	1100	k	k	1	714	Wednesday
303	G	19	1100	j	j	1	661	Tuesday
303	G	20	950	l	b	0	551	Thursday
303	G	21	500	k	k	1	826	Wednesday
303	G	22	500	b	b	1	610	Sunday
303	G	23	650	h	h	1	693	Monday
303	G	24	800	b	b	1	541	Sunday
303	G	25	500	l	l	1	629	Thursday
303	G	26	650	h	h	1	637	Monday
303	G	27	800	k	k	1	698	Wednesday
303	G	28	800	b	b	1	549	Sunday
303	G	29	950	j	j	1	1146	Tuesday
303	G	30	950	k	k	1	805	Wednesday
303	G	31	800	h	h	1	837	Monday
303	G	32	1100	l	l	1	639	Thursday
303	G	33	500	h	h	1	674	Monday
303	G	34	650	b	b	1	442	Sunday
303	G	35	1100	h	h	1	711	Monday
303	G	36	1100	j	j	1	914	Tuesday
303	G	37	500	b	b	1	581	Sunday
303	G	38	800	l	b	0	367	Thursday
303	G	39	650	k	k	1	746	Wednesday
303	G	40	950	l	l	1	573	Thursday
303	G	41	1100	b	b	1	498	Sunday
303	G	42	650	k	k	1	767	Wednesday
303	G	43	950	h	j	0	567	Monday
303	G	44	650	j	j	1	794	Tuesday
303	G	45	950	b	b	1	439	Sunday
303	G	46	500	k	k	1	674	Wednesday
303	G	47	500	j	j	1	701	Tuesday
303	G	48	950	h	h	1	511	Monday
303	G	49	1100	l	l	1	561	Thursday
303	G	50	800	j	j	1	1353	Tuesday
303	H	1	800	j	k	0	775	Tuesday
303	H	2	1100	b	b	1	1151	Thursday
303	H	3	950	k	k	1	973	Monday
303	H	4	500	j	j	1	618	Tuesday
303	H	5	500	h	h	1	922	Wednesday
303	H	6	950	l	l	1	554	Sunday
303	H	7	650	j	j	1	682	Tuesday
303	H	8	950	k	k	1	434	Monday
303	H	9	650	h	h	1	938	Wednesday
303	H	10	1100	l	l	1	505	Sunday
303	H	11	950	b	b	1	764	Thursday
303	H	12	650	h	h	1	646	Wednesday
303	H	13	800	b	b	1	614	Thursday
303	H	14	500	l	l	1	598	Sunday
303	H	15	1100	j	j	1	833	Tuesday
303	H	16	1100	k	k	1	636	Monday
303	H	17	650	l	l	1	644	Sunday
303	H	18	500	k	k	1	521	Monday
303	H	19	1100	b	b	1	574	Thursday
303	H	20	800	k	k	1	681	Monday
303	H	21	950	h	h	1	793	Wednesday
303	H	22	950	j	k	0	518	Tuesday
303	H	23	800	l	l	1	556	Sunday
303	H	24	800	h	h	1	1001	Wednesday
303	H	25	650	k	k	1	612	Monday
303	H	26	500	b	b	1	801	Thursday
303	H	27	800	l	l	1	513	Sunday
303	H	28	650	k	k	1	577	Monday
303	H	29	500	l	l	1	561	Sunday
303	H	30	500	h	h	1	718	Wednesday
303	H	31	950	b	h	0	756	Thursday
303	H	32	1100	j	j	1	886	Tuesday
303	H	33	1100	h	h	1	668	Wednesday
303	H	34	950	l	l	1	649	Sunday
303	H	35	800	b	b	1	681	Thursday
303	H	36	950	j	j	1	1081	Tuesday
303	H	37	650	l	l	1	452	Sunday
303	H	38	1100	h	h	1	769	Wednesday
303	H	39	500	b	b	1	646	Thursday
303	H	40	500	k	k	1	644	Monday
303	H	41	950	h	h	1	780	Wednesday
303	H	42	500	j	k	0	604	Tuesday
303	H	43	1100	k	k	1	753	Monday
303	H	44	800	j	j	1	558	Tuesday
303	H	45	800	h	h	1	892	Wednesday
303	H	46	1100	l	l	1	561	Sunday
303	H	47	650	b	b	1	660	Thursday
303	H	48	800	k	k	1	454	Monday
303	H	49	650	j	j	1	435	Tuesday
303	H	50	650	b	b	1	443	Thursday
304	A	1	950	k	k	1	2324	Wednesday
304	A	2	800	h	h	1	870	Monday
304	A	3	950	b	b	1	551	Sunday
304	A	4	500	k	k	1	673	Wednesday
304	A	5	1100	l	l	1	764	Thursday
304	A	6	500	h	h	1	737	Monday
304	A	7	650	b	b	1	575	Sunday
304	A	8	1100	j	j	1	815	Tuesday
304	A	9	800	l	l	1	961	Thursday
304	A	10	1100	h	h	1	857	Monday
304	A	11	500	b	b	1	596	Sunday
304	A	12	650	k	k	1	564	Wednesday
304	A	13	950	l	l	1	718	Thursday
304	A	14	1100	b	b	1	703	Sunday
304	A	15	650	k	k	1	764	Wednesday
304	A	16	950	h	h	1	684	Monday
304	A	17	650	j	j	1	1117	Tuesday
304	A	18	650	l	l	1	921	Thursday
304	A	19	650	j	j	1	1072	Tuesday
304	A	20	950	k	k	1	668	Wednesday
304	A	21	800	j	j	1	1131	Tuesday
304	A	22	1100	b	b	1	735	Sunday
304	A	23	800	k	k	1	699	Wednesday
304	A	24	950	h	h	1	745	Monday
304	A	25	1100	l	l	1	1271	Thursday
304	A	26	800	j	j	1	929	Tuesday
304	A	27	1100	h	h	1	623	Monday
304	A	28	500	j	j	1	1089	Tuesday
304	A	29	500	h	h	1	617	Monday
304	A	30	500	l	l	1	1364	Thursday
304	A	31	1100	k	k	1	636	Wednesday
304	A	32	650	b	b	1	684	Sunday
304	A	33	950	j	j	1	724	Tuesday
304	A	34	800	l	l	1	748	Thursday
304	A	35	950	b	b	1	594	Sunday
304	A	36	1100	k	k	1	716	Wednesday
304	A	37	1100	j	j	1	974	Tuesday
304	A	38	950	l	l	1	913	Thursday
304	A	39	500	k	k	1	643	Wednesday
304	A	40	500	b	b	1	601	Sunday
304	A	41	650	h	h	1	683	Monday
304	A	42	800	b	b	1	579	Sunday
304	A	43	500	l	l	1	941	Thursday
304	A	44	650	h	h	1	686	Monday
304	A	45	800	k	k	1	598	Wednesday
304	A	46	800	b	b	1	611	Sunday
304	A	47	950	j	j	1	779	Tuesday
304	A	48	800	h	h	1	710	Monday
304	A	49	650	l	l	1	2534	Thursday
304	A	50	500	j	j	1	1204	Tuesday
304	B	1	650	b	b	1	1365	Thursday
304	B	2	650	j	j	1	1504	Tuesday
304	B	3	800	k	k	1	808	Monday
304	B	4	650	b	b	1	2032	Thursday
304	B	5	1100	l	l	1	602	Sunday
304	B	6	800	h	h	1	602	Wednesday
304	B	7	800	j	j	1	474	Tuesday
304	B	8	1100	k	k	1	533	Monday
304	B	9	500	j	j	1	802	Tuesday
304	B	10	950	h	h	1	658	Wednesday
304	B	11	500	k	k	1	610	Monday
304	B	12	500	b	b	1	1624	Thursday
304	B	13	1100	h	h	1	608	Wednesday
304	B	14	650	l	l	1	635	Sunday
304	B	15	950	j	j	1	648	Tuesday
304	B	16	800	b	b	1	842	Thursday
304	B	17	950	l	l	1	612	Sunday
304	B	18	1100	h	h	1	826	Wednesday
304	B	19	1100	j	j	1	1490	Tuesday
304	B	20	950	b	b	1	826	Thursday
304	B	21	500	h	h	1	634	Wednesday
304	B	22	500	l	l	1	724	Sunday
304	B	23	650	k	k	1	695	Monday
304	B	24	800	l	l	1	538	Sunday
304	B	25	500	b	k	0	978	Thursday
304	B	26	650	k	k	1	709	Monday
304	B	27	800	h	h	1	1036	Wednesday
304	B	28	800	l	l	1	618	Sunday
304	B	29	950	j	j	1	1860	Tuesday
304	B	30	950	h	h	1	727	Wednesday
304	B	31	800	k	k	1	535	Monday
304	B	32	1100	b	b	1	527	Thursday
304	B	33	500	k	k	1	708	Monday
304	B	34	650	l	l	1	596	Sunday
304	B	35	1100	k	k	1	593	Monday
304	B	36	1100	j	j	1	1191	Tuesday
304	B	37	500	l	l	1	634	Sunday
304	B	38	800	b	b	1	1535	Thursday
304	B	39	650	h	h	1	692	Wednesday
304	B	40	950	b	b	1	812	Thursday
304	B	41	1100	l	l	1	642	Sunday
304	B	42	650	h	h	1	692	Wednesday
304	B	43	950	k	k	1	716	Monday
304	B	44	650	j	j	1	1212	Tuesday
304	B	45	950	l	l	1	557	Sunday
304	B	46	500	h	h	1	711	Wednesday
304	B	47	500	j	j	1	834	Tuesday
304	B	48	950	k	k	1	503	Monday
304	B	49	1100	b	b	1	2207	Thursday
304	B	50	800	j	j	1	855	Tuesday
304	C	1	950	j	j	1	1437	Tuesday
304	C	2	800	l	l	1	651	Sunday
304	C	3	800	h	h	1	1107	Wednesday
304	C	4	650	k	k	1	880	Monday
304	C	5	500	b	b	1	939	Thursday
304	C	6	800	l	l	1	708	Sunday
304	C	7	650	k	k	1	716	Monday
304	C	8	500	l	l	1	559	Sunday
304	C	9	500	h	h	1	714	Wednesday
304	C	10	950	b	b	1	1159	Thursday
304	C	11	1100	j	j	1	1778	Tuesday
304	C	12	1100	h	h	1	594	Wednesday
304	C	13	950	l	l	1	615	Sunday
304	C	14	800	b	b	1	794	Thursday
304	C	15	950	j	j	1	1399	Tuesday
304	C	16	650	l	l	1	559	Sunday
304	C	17	1100	h	h	1	746	Wednesday
304	C	18	500	b	b	1	2234	Thursday
304	C	19	500	k	k	1	796	Monday
304	C	20	950	h	h	1	676	Wednesday
304	C	21	500	j	j	1	722	Tuesday
304	C	22	1100	k	k	1	615	Monday
304	C	23	800	j	j	1	1058	Tuesday
304	C	24	800	h	h	1	740	Wednesday
304	C	25	1100	l	l	1	685	Sunday
304	C	26	500	j	j	1	1674	Tuesday
304	C	27	650	b	b	1	1002	Thursday
304	C	28	800	k	k	1	890	Monday
304	C	29	650	j	j	1	669	Tuesday
304	C	30	650	b	b	1	877	Thursday
304	C	31	650	j	j	1	989	Tuesday
304	C	32	950	k	k	1	610	Monday
304	C	33	650	h	h	1	693	Wednesday
304	C	34	1100	l	l	1	562	Sunday
304	C	35	950	b	b	1	1282	Thursday
304	C	36	650	h	h	1	677	Wednesday
304	C	37	800	b	b	1	890	Thursday
304	C	38	500	l	l	1	735	Sunday
304	C	39	1100	j	j	1	1711	Tuesday
304	C	40	1100	k	k	1	700	Monday
304	C	41	650	l	l	1	580	Sunday
304	C	42	500	k	j	0	572	Monday
304	C	43	1100	b	b	1	2337	Thursday
304	C	44	500	h	h	1	609	Wednesday
304	C	45	950	l	l	1	695	Sunday
304	C	46	800	k	k	1	698	Monday
304	C	47	950	h	h	1	1025	Wednesday
304	C	48	800	j	j	1	852	Tuesday
304	C	49	1100	b	b	1	689	Thursday
304	C	50	950	k	k	1	577	Monday
304	D	1	800	j	j	1	1083	Tuesday
304	D	2	1100	l	l	1	712	Thursday
304	D	3	950	h	h	1	606	Monday
304	D	4	500	j	j	1	931	Tuesday
304	D	5	500	k	k	1	665	Wednesday
304	D	6	950	b	b	1	596	Sunday
304	D	7	650	j	j	1	931	Tuesday
304	D	8	950	h	h	1	691	Monday
304	D	9	650	k	k	1	742	Wednesday
304	D	10	1100	b	b	1	718	Sunday
304	D	11	950	l	l	1	2651	Thursday
304	D	12	650	k	k	1	1182	Wednesday
304	D	13	800	l	l	1	817	Thursday
304	D	14	500	b	b	1	609	Sunday
304	D	15	1100	j	j	1	694	Tuesday
304	D	16	1100	h	h	1	430	Monday
304	D	17	650	b	b	1	598	Sunday
304	D	18	500	h	h	1	961	Monday
304	D	19	1100	l	l	1	1942	Thursday
304	D	20	800	h	h	1	761	Monday
304	D	21	950	k	k	1	705	Wednesday
304	D	22	950	j	j	1	635	Tuesday
304	D	23	800	b	b	1	553	Sunday
304	D	24	800	k	k	1	798	Wednesday
304	D	25	650	h	h	1	550	Monday
304	D	26	500	l	l	1	1465	Thursday
304	D	27	800	b	b	1	594	Sunday
304	D	28	650	h	h	1	594	Monday
304	D	29	500	b	b	1	541	Sunday
304	D	30	500	k	k	1	629	Wednesday
304	D	31	950	l	l	1	1770	Thursday
304	D	32	1100	j	j	1	888	Tuesday
304	D	33	1100	k	k	1	965	Wednesday
304	D	34	950	b	b	1	751	Sunday
304	D	35	800	l	l	1	936	Thursday
304	D	36	950	j	j	1	1258	Tuesday
304	D	37	650	b	b	1	560	Sunday
304	D	38	1100	k	k	1	762	Wednesday
304	D	39	500	l	l	1	984	Thursday
304	D	40	500	h	h	1	688	Monday
304	D	41	950	k	k	1	640	Wednesday
304	D	42	500	j	j	1	1002	Tuesday
304	D	43	1100	h	h	1	592	Monday
304	D	44	800	j	j	1	1461	Tuesday
304	D	45	800	k	k	1	608	Wednesday
304	D	46	1100	b	b	1	741	Sunday
304	D	47	650	l	l	1	2027	Thursday
304	D	48	800	h	h	1	645	Monday
304	D	49	650	j	j	1	984	Tuesday
304	D	50	650	l	l	1	1837	Thursday
304	E	1	950	j	j	1	1463	Tuesday
304	E	2	800	b	b	1	378	Sunday
304	E	3	800	k	k	1	588	Wednesday
304	E	4	650	h	h	1	332	Monday
304	E	5	500	l	l	1	586	Thursday
304	E	6	800	b	b	1	484	Sunday
304	E	7	650	h	h	1	791	Monday
304	E	8	500	b	b	1	554	Sunday
304	E	9	500	k	k	1	628	Wednesday
304	E	10	950	l	l	1	498	Thursday
304	E	11	1100	j	j	1	458	Tuesday
304	E	12	1100	k	k	1	466	Wednesday
304	E	13	950	b	b	1	604	Sunday
304	E	14	800	l	l	1	1204	Thursday
304	E	15	950	j	j	1	644	Tuesday
304	E	16	650	b	b	1	591	Sunday
304	E	17	1100	k	k	1	610	Wednesday
304	E	18	500	l	l	1	583	Thursday
304	E	19	500	h	h	1	663	Monday
304	E	20	950	k	k	1	1066	Wednesday
304	E	21	500	j	j	1	602	Tuesday
304	E	22	1100	h	h	1	775	Monday
304	E	23	800	j	j	1	682	Tuesday
304	E	24	800	k	k	1	826	Wednesday
304	E	25	1100	b	b	1	914	Sunday
304	E	26	500	j	j	1	844	Tuesday
304	E	27	650	l	l	1	671	Thursday
304	E	28	800	h	h	1	612	Monday
304	E	29	650	j	j	1	767	Tuesday
304	E	30	650	l	l	1	649	Thursday
304	E	31	650	j	j	1	1179	Tuesday
304	E	32	950	h	h	1	606	Monday
304	E	33	650	k	k	1	1425	Wednesday
304	E	34	1100	b	b	1	601	Sunday
304	E	35	950	l	l	1	529	Thursday
304	E	36	650	k	k	1	611	Wednesday
304	E	37	800	l	l	1	835	Thursday
304	E	38	500	b	b	1	854	Sunday
304	E	39	1100	j	j	1	822	Tuesday
304	E	40	1100	h	h	1	694	Monday
304	E	41	650	b	b	1	900	Sunday
304	E	42	500	h	h	1	692	Monday
304	E	43	1100	l	l	1	777	Thursday
304	E	44	500	k	k	1	1017	Wednesday
304	E	45	950	b	b	1	564	Sunday
304	E	46	800	h	h	1	636	Monday
304	E	47	950	k	k	1	713	Wednesday
304	E	48	800	j	j	1	710	Tuesday
304	E	49	1100	l	l	1	713	Thursday
304	E	50	950	h	h	1	678	Monday
304	F	1	950	h	h	1	644	Wednesday
304	F	2	800	k	k	1	1203	Monday
304	F	3	950	l	l	1	899	Sunday
304	F	4	500	h	h	1	723	Wednesday
304	F	5	1100	b	b	1	600	Thursday
304	F	6	500	k	k	1	662	Monday
304	F	7	650	l	l	1	523	Sunday
304	F	8	1100	k	k	1	472	Monday
304	F	9	1100	j	j	1	739	Tuesday
304	F	10	500	l	l	1	547	Sunday
304	F	11	800	b	b	1	600	Thursday
304	F	12	650	h	h	1	651	Wednesday
304	F	13	950	b	b	1	579	Thursday
304	F	14	1100	l	l	1	643	Sunday
304	F	15	650	h	h	1	622	Wednesday
304	F	16	950	k	k	1	584	Monday
304	F	17	650	j	j	1	662	Tuesday
304	F	18	650	b	b	1	659	Thursday
304	F	19	650	j	j	1	744	Tuesday
304	F	20	950	h	h	1	539	Wednesday
304	F	21	800	j	j	1	702	Tuesday
304	F	22	1100	l	l	1	606	Sunday
304	F	23	800	h	h	1	678	Wednesday
304	F	24	950	k	k	1	627	Monday
304	F	25	1100	b	b	1	518	Thursday
304	F	26	800	j	j	1	675	Tuesday
304	F	27	1100	k	k	1	654	Monday
304	F	28	500	j	j	1	526	Tuesday
304	F	29	500	k	k	1	571	Monday
304	F	30	500	b	b	1	792	Thursday
304	F	31	1100	h	h	1	659	Wednesday
304	F	32	650	l	l	1	536	Sunday
304	F	33	950	j	j	1	851	Tuesday
304	F	34	800	b	b	1	635	Thursday
304	F	35	950	l	l	1	1144	Sunday
304	F	36	1100	h	h	1	928	Wednesday
304	F	37	1100	j	j	1	774	Tuesday
304	F	38	950	b	b	1	696	Thursday
304	F	39	500	h	h	1	752	Wednesday
304	F	40	500	l	l	1	659	Sunday
304	F	41	650	k	k	1	576	Monday
304	F	42	800	l	l	1	891	Sunday
304	F	43	500	b	b	1	601	Thursday
304	F	44	650	k	k	1	459	Monday
304	F	45	800	h	h	1	566	Wednesday
304	F	46	800	l	l	1	566	Sunday
304	F	47	950	j	j	1	1366	Tuesday
304	F	48	800	k	k	1	550	Monday
304	F	49	650	b	b	1	1022	Thursday
304	F	50	500	j	j	1	846	Tuesday
304	G	1	650	l	l	1	1267	Thursday
304	G	2	650	j	j	1	912	Tuesday
304	G	3	800	h	h	1	821	Monday
304	G	4	650	l	l	1	754	Thursday
304	G	5	1100	b	b	1	677	Sunday
304	G	6	800	k	k	1	658	Wednesday
304	G	7	800	j	j	1	669	Tuesday
304	G	8	1100	h	h	1	535	Monday
304	G	9	500	j	j	1	727	Tuesday
304	G	10	950	k	k	1	655	Wednesday
304	G	11	500	h	h	1	607	Monday
304	G	12	500	l	l	1	605	Thursday
304	G	13	1100	k	k	1	642	Wednesday
304	G	14	650	b	b	1	541	Sunday
304	G	15	950	j	j	1	727	Tuesday
304	G	16	800	l	l	1	727	Thursday
304	G	17	950	b	b	1	727	Sunday
304	G	18	1100	k	k	1	549	Wednesday
304	G	19	1100	j	j	1	703	Tuesday
304	G	20	950	l	l	1	522	Thursday
304	G	21	500	k	k	1	639	Wednesday
304	G	22	500	b	b	1	442	Sunday
304	G	23	650	h	h	1	429	Monday
304	G	24	800	b	b	1	450	Sunday
304	G	25	500	l	l	1	911	Thursday
304	G	26	650	h	b	0	455	Monday
304	G	27	800	k	k	1	674	Wednesday
304	G	28	800	b	b	1	583	Sunday
304	G	29	950	j	j	1	770	Tuesday
304	G	30	950	k	k	1	690	Wednesday
304	G	31	800	h	h	1	786	Monday
304	G	32	1100	l	l	1	578	Thursday
304	G	33	500	h	h	1	714	Monday
304	G	34	650	b	b	1	578	Sunday
304	G	35	1100	h	h	1	642	Monday
304	G	36	1100	j	j	1	655	Tuesday
304	G	37	500	b	b	1	455	Sunday
304	G	38	800	l	l	1	530	Thursday
304	G	39	650	k	k	1	549	Wednesday
304	G	40	950	l	l	1	602	Thursday
304	G	41	1100	b	b	1	511	Sunday
304	G	42	650	k	k	1	863	Wednesday
304	G	43	950	h	h	1	625	Monday
304	G	44	650	j	j	1	366	Tuesday
304	G	45	950	b	b	1	454	Sunday
304	G	46	500	k	k	1	854	Wednesday
304	G	47	500	j	j	1	750	Tuesday
304	G	48	950	h	h	1	532	Monday
304	G	49	1100	l	l	1	585	Thursday
304	G	50	800	j	j	1	708	Tuesday
304	H	1	800	j	j	1	1109	Tuesday
304	H	2	1100	b	h	0	2248	Thursday
304	H	3	950	k	k	1	704	Monday
304	H	4	500	j	j	1	680	Tuesday
304	H	5	500	h	h	1	595	Wednesday
304	H	6	950	l	l	1	543	Sunday
304	H	7	650	j	j	1	780	Tuesday
304	H	8	950	k	k	1	431	Monday
304	H	9	650	h	h	1	623	Wednesday
304	H	10	1100	l	l	1	591	Sunday
304	H	11	950	b	b	1	324	Thursday
304	H	12	650	h	h	1	655	Wednesday
304	H	13	800	b	b	1	554	Thursday
304	H	14	500	l	l	1	572	Sunday
304	H	15	1100	j	j	1	1554	Tuesday
304	H	16	1100	k	k	1	828	Monday
304	H	17	650	l	l	1	660	Sunday
304	H	18	500	k	k	1	476	Monday
304	H	19	1100	b	b	1	1559	Thursday
304	H	20	800	k	k	1	996	Monday
304	H	21	950	h	h	1	746	Wednesday
304	H	22	950	j	j	1	796	Tuesday
304	H	23	800	l	l	1	538	Sunday
304	H	24	800	h	h	1	868	Wednesday
304	H	25	650	k	k	1	828	Monday
304	H	26	500	b	b	1	719	Thursday
304	H	27	800	l	l	1	436	Sunday
304	H	28	650	k	k	1	828	Monday
304	H	29	500	l	l	1	647	Sunday
304	H	30	500	h	h	1	620	Wednesday
304	H	31	950	b	b	1	503	Thursday
304	H	32	1100	j	j	1	775	Tuesday
304	H	33	1100	h	h	1	679	Wednesday
304	H	34	950	l	l	1	948	Sunday
304	H	35	800	b	b	1	1186	Thursday
304	H	36	950	j	j	1	876	Tuesday
304	H	37	650	l	l	1	588	Sunday
304	H	38	1100	h	h	1	703	Wednesday
304	H	39	500	b	b	1	687	Thursday
304	H	40	500	k	k	1	748	Monday
304	H	41	950	h	h	1	706	Wednesday
304	H	42	500	j	j	1	794	Tuesday
304	H	43	1100	k	k	1	643	Monday
304	H	44	800	j	j	1	699	Tuesday
304	H	45	800	h	h	1	614	Wednesday
304	H	46	1100	l	b	0	158	Sunday
304	H	47	650	b	b	1	502	Thursday
304	H	48	800	k	k	1	665	Monday
304	H	49	650	j	j	1	478	Tuesday
304	H	50	650	b	b	1	686	Thursday
305	A	1	950	k	k	1	705	Wednesday
305	A	2	800	h	h	1	619	Monday
305	A	3	950	b	b	1	718	Sunday
305	A	4	500	k	k	1	657	Wednesday
305	A	5	1100	l	l	1	689	Thursday
305	A	6	500	h	h	1	526	Monday
305	A	7	650	b	b	1	745	Sunday
305	A	8	1100	j	j	1	529	Tuesday
305	A	9	800	l	l	1	633	Thursday
305	A	10	1100	h	h	1	611	Monday
305	A	11	500	b	b	1	576	Sunday
305	A	12	650	k	k	1	461	Wednesday
305	A	13	950	l	l	1	728	Thursday
305	A	14	1100	b	b	1	597	Sunday
305	A	15	650	k	k	1	709	Wednesday
305	A	16	950	h	h	1	658	Monday
305	A	17	650	j	j	1	920	Tuesday
305	A	18	650	l	l	1	723	Thursday
305	A	19	650	j	j	1	901	Tuesday
305	A	20	950	k	k	1	792	Wednesday
305	A	21	800	j	j	1	565	Tuesday
305	A	22	1100	b	b	1	1091	Sunday
305	A	23	800	k	k	1	739	Wednesday
305	A	24	950	h	h	1	405	Monday
305	A	25	1100	l	l	1	419	Thursday
305	A	26	800	j	j	1	597	Tuesday
305	A	27	1100	h	h	1	632	Monday
305	A	28	500	j	j	1	619	Tuesday
305	A	29	500	h	h	1	651	Monday
305	A	30	500	l	l	1	616	Thursday
305	A	31	1100	k	k	1	488	Wednesday
305	A	32	650	b	h	0	475	Sunday
305	A	33	950	j	j	1	914	Tuesday
305	A	34	800	l	l	1	659	Thursday
305	A	35	950	b	b	1	717	Sunday
305	A	36	1100	k	k	1	632	Wednesday
305	A	37	1100	j	j	1	971	Tuesday
305	A	38	950	l	l	1	691	Thursday
305	A	39	500	k	k	1	688	Wednesday
305	A	40	500	b	b	1	774	Sunday
305	A	41	650	h	h	1	520	Monday
305	A	42	800	b	b	1	758	Sunday
305	A	43	500	l	l	1	640	Thursday
305	A	44	650	h	h	1	736	Monday
305	A	45	800	k	k	1	707	Wednesday
305	A	46	800	b	b	1	974	Sunday
305	A	47	950	j	j	1	814	Tuesday
305	A	48	800	h	h	1	574	Monday
305	A	49	650	l	l	1	712	Thursday
305	A	50	500	j	j	1	627	Tuesday
305	B	1	650	b	b	1	703	Thursday
305	B	2	650	j	j	1	500	Tuesday
305	B	3	800	k	k	1	447	Monday
305	B	4	650	b	b	1	673	Thursday
305	B	5	1100	l	l	1	716	Sunday
305	B	6	800	h	h	1	609	Wednesday
305	B	7	800	j	j	1	808	Tuesday
305	B	8	1100	k	k	1	482	Monday
305	B	9	500	j	j	1	703	Tuesday
305	B	10	950	h	h	1	418	Wednesday
305	B	11	500	k	k	1	674	Monday
305	B	12	500	b	b	1	508	Thursday
305	B	13	1100	h	h	1	759	Wednesday
305	B	14	650	l	l	1	711	Sunday
305	B	15	950	j	j	1	636	Tuesday
305	B	16	800	b	b	1	522	Thursday
305	B	17	950	l	l	1	618	Sunday
305	B	18	1100	h	h	1	602	Wednesday
305	B	19	1100	j	j	1	663	Tuesday
305	B	20	950	b	b	1	816	Thursday
305	B	21	500	h	h	1	554	Wednesday
305	B	22	500	l	l	1	644	Sunday
305	B	23	650	k	k	1	399	Monday
305	B	24	800	l	l	1	636	Sunday
305	B	25	500	b	b	1	695	Thursday
305	B	26	650	k	k	1	700	Monday
305	B	27	800	h	h	1	695	Wednesday
305	B	28	800	l	l	1	817	Sunday
305	B	29	950	j	j	1	1268	Tuesday
305	B	30	950	h	h	1	553	Wednesday
305	B	31	800	k	k	1	678	Monday
305	B	32	1100	b	b	1	625	Thursday
305	B	33	500	k	k	1	681	Monday
305	B	34	650	l	l	1	668	Sunday
305	B	35	1100	k	k	1	638	Monday
305	B	36	1100	j	j	1	841	Tuesday
305	B	37	500	l	l	1	812	Sunday
305	B	38	800	b	b	1	777	Thursday
305	B	39	650	h	h	1	630	Wednesday
305	B	40	950	b	b	1	860	Thursday
305	B	41	1100	l	l	1	588	Sunday
305	B	42	650	h	h	1	612	Wednesday
305	B	43	950	k	k	1	636	Monday
305	B	44	650	j	j	1	716	Tuesday
305	B	45	950	l	l	1	593	Sunday
305	B	46	500	h	h	1	892	Wednesday
305	B	47	500	j	j	1	553	Tuesday
305	B	48	950	k	k	1	590	Monday
305	B	49	1100	b	b	1	727	Thursday
305	B	50	800	j	j	1	604	Tuesday
305	C	1	950	j	j	1	949	Tuesday
305	C	2	800	l	l	1	722	Sunday
305	C	3	800	h	h	1	770	Wednesday
305	C	4	650	k	k	1	733	Monday
305	C	5	500	b	b	1	1098	Thursday
305	C	6	800	l	l	1	501	Sunday
305	C	7	650	k	k	1	714	Monday
305	C	8	500	l	l	1	733	Sunday
305	C	9	500	h	h	1	676	Wednesday
305	C	10	950	b	b	1	789	Thursday
305	C	11	1100	j	j	1	760	Tuesday
305	C	12	1100	h	h	1	794	Wednesday
305	C	13	950	l	l	1	840	Sunday
305	C	14	800	b	b	1	677	Thursday
305	C	15	950	j	j	1	833	Tuesday
305	C	16	650	l	l	1	777	Sunday
305	C	17	1100	h	h	1	681	Wednesday
305	C	18	500	b	b	1	783	Thursday
305	C	19	500	k	k	1	751	Monday
305	C	20	950	h	h	1	724	Wednesday
305	C	21	500	j	j	1	529	Tuesday
305	C	22	1100	k	k	1	775	Monday
305	C	23	800	j	j	1	721	Tuesday
305	C	24	800	h	h	1	441	Wednesday
305	C	25	1100	l	k	0	527	Sunday
305	C	26	500	j	j	1	732	Tuesday
305	C	27	650	b	b	1	673	Thursday
305	C	28	800	k	k	1	873	Monday
305	C	29	650	j	j	1	505	Tuesday
305	C	30	650	b	b	1	681	Thursday
305	C	31	650	j	j	1	727	Tuesday
305	C	32	950	k	k	1	839	Monday
305	C	33	650	h	h	1	655	Wednesday
305	C	34	1100	l	l	1	527	Sunday
305	C	35	950	b	b	1	695	Thursday
305	C	36	650	h	h	1	660	Wednesday
305	C	37	800	b	b	1	711	Thursday
305	C	38	500	l	l	1	737	Sunday
305	C	39	1100	j	b	0	1210	Tuesday
305	C	40	1100	k	k	1	959	Monday
305	C	41	650	l	l	1	655	Sunday
305	C	42	500	k	k	1	679	Monday
305	C	43	1100	b	b	1	674	Thursday
305	C	44	500	h	h	1	668	Wednesday
305	C	45	950	l	l	1	698	Sunday
305	C	46	800	k	k	1	748	Monday
305	C	47	950	h	h	1	666	Wednesday
305	C	48	800	j	j	1	748	Tuesday
305	C	49	1100	b	b	1	679	Thursday
305	C	50	950	k	k	1	668	Monday
305	D	1	800	j	h	0	923	Tuesday
305	D	2	1100	l	l	1	712	Thursday
305	D	3	950	h	h	1	693	Monday
305	D	4	500	j	j	1	659	Tuesday
305	D	5	500	k	k	1	619	Wednesday
305	D	6	950	b	b	1	437	Sunday
305	D	7	650	j	j	1	893	Tuesday
305	D	8	950	h	h	1	589	Monday
305	D	9	650	k	k	1	693	Wednesday
305	D	10	1100	b	b	1	595	Sunday
305	D	11	950	l	l	1	960	Thursday
305	D	12	650	k	k	1	648	Wednesday
305	D	13	800	l	l	1	1152	Thursday
305	D	14	500	b	b	1	803	Sunday
305	D	15	1100	j	j	1	704	Tuesday
305	D	16	1100	h	h	1	920	Monday
305	D	17	650	b	b	1	752	Sunday
305	D	18	500	h	h	1	643	Monday
305	D	19	1100	l	l	1	736	Thursday
305	D	20	800	h	h	1	635	Monday
305	D	21	950	k	k	1	720	Wednesday
305	D	22	950	j	j	1	813	Tuesday
305	D	23	800	b	b	1	477	Sunday
305	D	24	800	k	k	1	1051	Wednesday
305	D	25	650	h	h	1	549	Monday
305	D	26	500	l	l	1	696	Thursday
305	D	27	800	b	b	1	627	Sunday
305	D	28	650	h	h	1	440	Monday
305	D	29	500	b	b	1	675	Sunday
305	D	30	500	k	k	1	781	Wednesday
305	D	31	950	l	l	1	768	Thursday
305	D	32	1100	j	j	1	549	Tuesday
305	D	33	1100	k	k	1	647	Wednesday
305	D	34	950	b	b	1	655	Sunday
305	D	35	800	l	l	1	674	Thursday
305	D	36	950	j	j	1	711	Tuesday
305	D	37	650	b	b	1	671	Sunday
305	D	38	1100	k	k	1	898	Wednesday
305	D	39	500	l	l	1	698	Thursday
305	D	40	500	h	h	1	754	Monday
305	D	41	950	k	k	1	687	Wednesday
305	D	42	500	j	j	1	612	Tuesday
305	D	43	1100	h	h	1	610	Monday
305	D	44	800	j	j	1	1322	Tuesday
305	D	45	800	k	k	1	682	Wednesday
305	D	46	1100	b	b	1	647	Sunday
305	D	47	650	l	l	1	706	Thursday
305	D	48	800	h	h	1	541	Monday
305	D	49	650	j	j	1	754	Tuesday
305	D	50	650	l	l	1	754	Thursday
305	E	1	950	j	j	1	614	Tuesday
305	E	2	800	b	b	1	553	Sunday
305	E	3	800	k	k	1	550	Wednesday
305	E	4	650	h	h	1	518	Monday
305	E	5	500	l	l	1	529	Thursday
305	E	6	800	b	b	1	593	Sunday
305	E	7	650	h	h	1	649	Monday
305	E	8	500	b	b	1	582	Sunday
305	E	9	500	k	k	1	613	Wednesday
305	E	10	950	l	l	1	496	Thursday
305	E	11	1100	j	j	1	480	Tuesday
305	E	12	1100	k	k	1	677	Wednesday
305	E	13	950	b	b	1	595	Sunday
305	E	14	800	l	l	1	744	Thursday
305	E	15	950	j	j	1	475	Tuesday
305	E	16	650	b	b	1	499	Sunday
305	E	17	1100	k	k	1	587	Wednesday
305	E	18	500	l	l	1	549	Thursday
305	E	19	500	h	j	0	480	Monday
305	E	20	950	k	k	1	680	Wednesday
305	E	21	500	j	j	1	645	Tuesday
305	E	22	1100	h	h	1	547	Monday
305	E	23	800	j	j	1	1224	Tuesday
305	E	24	800	k	k	1	451	Wednesday
305	E	25	1100	b	b	1	664	Sunday
305	E	26	500	j	j	1	552	Tuesday
305	E	27	650	l	l	1	496	Thursday
305	E	28	800	h	h	1	659	Monday
305	E	29	650	j	j	1	664	Tuesday
305	E	30	650	l	l	1	485	Thursday
305	E	31	650	j	j	1	512	Tuesday
305	E	32	950	h	h	1	477	Monday
305	E	33	650	k	k	1	405	Wednesday
305	E	34	1100	b	b	1	579	Sunday
305	E	35	950	l	l	1	590	Thursday
305	E	36	650	k	k	1	694	Wednesday
305	E	37	800	l	l	1	552	Thursday
305	E	38	500	b	h	0	619	Sunday
305	E	39	1100	j	j	1	539	Tuesday
305	E	40	1100	h	h	1	555	Monday
305	E	41	650	b	b	1	499	Sunday
305	E	42	500	h	h	1	611	Monday
305	E	43	1100	l	l	1	552	Thursday
305	E	44	500	k	k	1	507	Wednesday
305	E	45	950	b	b	1	542	Sunday
305	E	46	800	h	h	1	512	Monday
305	E	47	950	k	k	1	534	Wednesday
305	E	48	800	j	j	1	486	Tuesday
305	E	49	1100	l	l	1	515	Thursday
305	E	50	950	h	h	1	624	Monday
305	F	1	950	h	h	1	643	Wednesday
305	F	2	800	k	k	1	779	Monday
305	F	3	950	l	l	1	596	Sunday
305	F	4	500	h	h	1	575	Wednesday
305	F	5	1100	b	b	1	447	Thursday
305	F	6	500	k	k	1	572	Monday
305	F	7	650	l	l	1	543	Sunday
305	F	8	1100	k	k	1	599	Monday
305	F	9	1100	j	j	1	562	Tuesday
305	F	10	500	l	l	1	535	Sunday
305	F	11	800	b	b	1	610	Thursday
305	F	12	650	h	h	1	548	Wednesday
305	F	13	950	b	b	1	650	Thursday
305	F	14	1100	l	l	1	599	Sunday
305	F	15	650	h	h	1	559	Wednesday
305	F	16	950	k	k	1	645	Monday
305	F	17	650	j	j	1	399	Tuesday
305	F	18	650	b	b	1	471	Thursday
305	F	19	650	j	j	1	695	Tuesday
305	F	20	950	h	h	1	554	Wednesday
305	F	21	800	j	j	1	671	Tuesday
305	F	22	1100	l	l	1	538	Sunday
305	F	23	800	h	h	1	557	Wednesday
305	F	24	950	k	k	1	946	Monday
305	F	25	1100	b	b	1	546	Thursday
305	F	26	800	j	j	1	565	Tuesday
305	F	27	1100	k	k	1	538	Monday
305	F	28	500	j	j	1	826	Tuesday
305	F	29	500	k	k	1	786	Monday
305	F	30	500	b	b	1	738	Thursday
305	F	31	1100	h	h	1	610	Wednesday
305	F	32	650	l	l	1	589	Sunday
305	F	33	950	j	j	1	410	Tuesday
305	F	34	800	b	b	1	570	Thursday
305	F	35	950	l	l	1	602	Sunday
305	F	36	1100	h	h	1	464	Wednesday
305	F	37	1100	j	j	1	472	Tuesday
305	F	38	950	b	b	1	565	Thursday
305	F	39	500	h	h	1	850	Wednesday
305	F	40	500	l	l	1	608	Sunday
305	F	41	650	k	k	1	458	Monday
305	F	42	800	l	l	1	1005	Sunday
305	F	43	500	b	b	1	642	Thursday
305	F	44	650	k	k	1	469	Monday
305	F	45	800	h	h	1	482	Wednesday
305	F	46	800	l	l	1	594	Sunday
305	F	47	950	j	j	1	640	Tuesday
305	F	48	800	k	k	1	557	Monday
305	F	49	650	b	b	1	685	Thursday
305	F	50	500	j	j	1	610	Tuesday
305	G	1	650	l	l	1	591	Thursday
305	G	2	650	j	j	1	703	Tuesday
305	G	3	800	h	h	1	482	Monday
305	G	4	650	l	l	1	596	Thursday
305	G	5	1100	b	b	1	647	Sunday
305	G	6	800	k	k	1	663	Wednesday
305	G	7	800	j	j	1	562	Tuesday
305	G	8	1100	h	h	1	519	Monday
305	G	9	500	j	j	1	922	Tuesday
305	G	10	950	k	j	0	794	Wednesday
305	G	11	500	h	h	1	644	Monday
305	G	12	500	l	l	1	729	Thursday
305	G	13	1100	k	k	1	822	Wednesday
305	G	14	650	b	b	1	931	Sunday
305	G	15	950	j	j	1	883	Tuesday
305	G	16	800	l	l	1	907	Thursday
305	G	17	950	b	b	1	473	Sunday
305	G	18	1100	k	k	1	675	Wednesday
305	G	19	1100	j	j	1	606	Tuesday
305	G	20	950	l	l	1	566	Thursday
305	G	21	500	k	k	1	755	Wednesday
305	G	22	500	b	b	1	566	Sunday
305	G	23	650	h	h	1	433	Monday
305	G	24	800	b	b	1	566	Sunday
305	G	25	500	l	l	1	635	Thursday
305	G	26	650	h	h	1	675	Monday
305	G	27	800	k	k	1	513	Wednesday
305	G	28	800	b	b	1	806	Sunday
305	G	29	950	j	j	1	686	Tuesday
305	G	30	950	k	k	1	614	Wednesday
305	G	31	800	h	h	1	617	Monday
305	G	32	1100	l	l	1	601	Thursday
305	G	33	500	h	h	1	598	Monday
305	G	34	650	b	b	1	526	Sunday
305	G	35	1100	h	h	1	659	Monday
305	G	36	1100	j	j	1	499	Tuesday
305	G	37	500	b	b	1	755	Sunday
305	G	38	800	l	l	1	633	Thursday
305	G	39	650	k	k	1	633	Wednesday
305	G	40	950	l	l	1	638	Thursday
305	G	41	1100	b	b	1	689	Sunday
305	G	42	650	k	k	1	1020	Wednesday
305	G	43	950	h	h	1	550	Monday
305	G	44	650	j	j	1	494	Tuesday
305	G	45	950	b	b	1	561	Sunday
305	G	46	500	k	k	1	566	Wednesday
305	G	47	500	j	j	1	644	Tuesday
305	G	48	950	h	h	1	580	Monday
305	G	49	1100	l	l	1	756	Thursday
305	G	50	800	j	j	1	561	Tuesday
305	H	1	800	j	j	1	672	Tuesday
305	H	2	1100	b	b	1	699	Thursday
305	H	3	950	k	k	1	718	Monday
305	H	4	500	j	j	1	672	Tuesday
305	H	5	500	h	h	1	427	Wednesday
305	H	6	950	l	l	1	584	Sunday
305	H	7	650	j	j	1	686	Tuesday
305	H	8	950	k	k	1	574	Monday
305	H	9	650	h	h	1	451	Wednesday
305	H	10	1100	l	l	1	696	Sunday
305	H	11	950	b	b	1	611	Thursday
305	H	12	650	h	h	1	598	Wednesday
305	H	13	800	b	b	1	707	Thursday
305	H	14	500	l	l	1	614	Sunday
305	H	15	1100	j	j	1	438	Tuesday
305	H	16	1100	k	k	1	496	Monday
305	H	17	650	l	l	1	662	Sunday
305	H	18	500	k	k	1	870	Monday
305	H	19	1100	b	b	1	616	Thursday
305	H	20	800	k	k	1	771	Monday
305	H	21	950	h	h	1	779	Wednesday
305	H	22	950	j	j	1	606	Tuesday
305	H	23	800	l	l	1	542	Sunday
305	H	24	800	h	h	1	752	Wednesday
305	H	25	650	k	k	1	840	Monday
305	H	26	500	b	b	1	531	Thursday
305	H	27	800	l	l	1	699	Sunday
305	H	28	650	k	k	1	440	Monday
305	H	29	500	l	l	1	763	Sunday
305	H	30	500	h	h	1	672	Wednesday
305	H	31	950	b	b	1	589	Thursday
305	H	32	1100	j	j	1	711	Tuesday
305	H	33	1100	h	h	1	570	Wednesday
305	H	34	950	l	l	1	610	Sunday
305	H	35	800	b	b	1	546	Thursday
305	H	36	950	j	j	1	845	Tuesday
305	H	37	650	l	l	1	623	Sunday
305	H	38	1100	h	h	1	375	Wednesday
305	H	39	500	b	b	1	647	Thursday
305	H	40	500	k	k	1	405	Monday
305	H	41	950	h	h	1	685	Wednesday
305	H	42	500	j	j	1	426	Tuesday
305	H	43	1100	k	k	1	634	Monday
305	H	44	800	j	j	1	776	Tuesday
305	H	45	800	h	h	1	874	Wednesday
305	H	46	1100	l	l	1	565	Sunday
305	H	47	650	b	b	1	432	Thursday
305	H	48	800	k	k	1	1029	Monday
305	H	49	650	j	j	1	573	Tuesday
305	H	50	650	b	b	1	600	Thursday
306	A	1	950	k	k	1	634	Wednesday
306	A	2	800	h	h	1	527	Monday
306	A	3	950	b	b	1	519	Sunday
306	A	4	500	k	k	1	626	Wednesday
306	A	5	1100	l	l	1	674	Thursday
306	A	6	500	h	h	1	613	Monday
306	A	7	650	b	b	1	631	Sunday
306	A	8	1100	j	j	1	778	Tuesday
306	A	9	800	l	l	1	717	Thursday
306	A	10	1100	h	h	1	599	Monday
306	A	11	500	b	b	1	778	Sunday
306	A	12	650	k	k	1	703	Wednesday
306	A	13	950	l	l	1	682	Thursday
306	A	14	1100	b	b	1	631	Sunday
306	A	15	650	k	k	1	703	Wednesday
306	A	16	950	h	h	1	618	Monday
306	A	17	650	j	j	1	783	Tuesday
306	A	18	650	l	l	1	557	Thursday
306	A	19	650	j	j	1	1067	Tuesday
306	A	20	950	k	h	0	586	Wednesday
306	A	21	800	j	j	1	1247	Tuesday
306	A	22	1100	b	b	1	623	Sunday
306	A	23	800	k	k	1	810	Wednesday
306	A	24	950	h	h	1	658	Monday
306	A	25	1100	l	l	1	716	Thursday
306	A	26	800	j	j	1	629	Tuesday
306	A	27	1100	h	h	1	567	Monday
306	A	28	500	j	j	1	813	Tuesday
306	A	29	500	h	h	1	700	Monday
306	A	30	500	l	l	1	929	Thursday
306	A	31	1100	k	k	1	778	Wednesday
306	A	32	650	b	h	0	615	Sunday
306	A	33	950	j	j	1	730	Tuesday
306	A	34	800	l	l	1	826	Thursday
306	A	35	950	b	h	0	597	Sunday
306	A	36	1100	k	k	1	615	Wednesday
306	A	37	1100	j	j	1	848	Tuesday
306	A	38	950	l	l	1	804	Thursday
306	A	39	500	k	k	1	691	Wednesday
306	A	40	500	b	b	1	614	Sunday
306	A	41	650	h	h	1	604	Monday
306	A	42	800	b	b	1	748	Sunday
306	A	43	500	l	l	1	783	Thursday
306	A	44	650	h	h	1	548	Monday
306	A	45	800	k	k	1	793	Wednesday
306	A	46	800	b	b	1	615	Sunday
306	A	47	950	j	j	1	777	Tuesday
306	A	48	800	h	h	1	886	Monday
306	A	49	650	l	l	1	1692	Thursday
306	A	50	500	j	j	1	833	Tuesday
306	B	1	650	b	b	1	999	Thursday
306	B	2	650	j	j	1	823	Tuesday
306	B	3	800	k	k	1	649	Monday
306	B	4	650	b	j	0	684	Thursday
306	B	5	1100	l	l	1	681	Sunday
306	B	6	800	h	h	1	843	Wednesday
306	B	7	800	j	j	1	759	Tuesday
306	B	8	1100	k	k	1	625	Monday
306	B	9	500	j	j	1	921	Tuesday
306	B	10	950	h	h	1	769	Wednesday
306	B	11	500	k	j	0	647	Monday
306	B	12	500	b	b	1	1148	Thursday
306	B	13	1100	h	h	1	751	Wednesday
306	B	14	650	l	l	1	655	Sunday
306	B	15	950	j	j	1	810	Tuesday
306	B	16	800	b	b	1	642	Thursday
306	B	17	950	l	l	1	674	Sunday
306	B	18	1100	h	h	1	916	Wednesday
306	B	19	1100	j	j	1	599	Tuesday
306	B	20	950	b	b	1	644	Thursday
306	B	21	500	h	h	1	842	Wednesday
306	B	22	500	l	l	1	590	Sunday
306	B	23	650	k	k	1	630	Monday
306	B	24	800	l	l	1	723	Sunday
306	B	25	500	b	b	1	801	Thursday
306	B	26	650	k	k	1	699	Monday
306	B	27	800	h	h	1	662	Wednesday
306	B	28	800	l	l	1	801	Sunday
306	B	29	950	j	j	1	713	Tuesday
306	B	30	950	h	h	1	694	Wednesday
306	B	31	800	k	k	1	849	Monday
306	B	32	1100	b	b	1	724	Thursday
306	B	33	500	k	k	1	910	Monday
306	B	34	650	l	l	1	812	Sunday
306	B	35	1100	k	k	1	726	Monday
306	B	36	1100	j	j	1	675	Tuesday
306	B	37	500	l	l	1	702	Sunday
306	B	38	800	b	b	1	1009	Thursday
306	B	39	650	h	h	1	675	Wednesday
306	B	40	950	b	b	1	689	Thursday
306	B	41	1100	l	l	1	534	Sunday
306	B	42	650	h	h	1	707	Wednesday
306	B	43	950	k	k	1	835	Monday
306	B	44	650	j	j	1	926	Tuesday
306	B	45	950	l	l	1	590	Sunday
306	B	46	500	h	h	1	815	Wednesday
306	B	47	500	j	j	1	649	Tuesday
306	B	48	950	k	k	1	705	Monday
306	B	49	1100	b	b	1	961	Thursday
306	B	50	800	j	j	1	633	Tuesday
306	C	1	950	j	j	1	1178	Tuesday
306	C	2	800	l	l	1	588	Sunday
306	C	3	800	h	h	1	610	Wednesday
306	C	4	650	k	k	1	692	Monday
306	C	5	500	b	b	1	874	Thursday
306	C	6	800	l	l	1	671	Sunday
306	C	7	650	k	k	1	591	Monday
306	C	8	500	l	l	1	692	Sunday
306	C	9	500	h	h	1	583	Wednesday
306	C	10	950	b	b	1	676	Thursday
306	C	11	1100	j	j	1	994	Tuesday
306	C	12	1100	h	h	1	853	Wednesday
306	C	13	950	l	l	1	695	Sunday
306	C	14	800	b	b	1	733	Thursday
306	C	15	950	j	h	0	773	Tuesday
306	C	16	650	l	l	1	695	Sunday
306	C	17	1100	h	h	1	687	Wednesday
306	C	18	500	b	b	1	1597	Thursday
306	C	19	500	k	l	0	735	Monday
306	C	20	950	h	h	1	1154	Wednesday
306	C	21	500	j	j	1	605	Tuesday
306	C	22	1100	k	k	1	674	Monday
306	C	23	800	j	j	1	911	Tuesday
306	C	24	800	h	h	1	756	Wednesday
306	C	25	1100	l	l	1	958	Sunday
306	C	26	500	j	j	1	1073	Tuesday
306	C	27	650	b	b	1	753	Thursday
306	C	28	800	k	k	1	734	Monday
306	C	29	650	j	j	1	580	Tuesday
306	C	30	650	b	b	1	1193	Thursday
306	C	31	650	j	j	1	609	Tuesday
306	C	32	950	k	k	1	817	Monday
306	C	33	650	h	h	1	598	Wednesday
306	C	34	1100	l	l	1	1017	Sunday
306	C	35	950	b	b	1	684	Thursday
306	C	36	650	h	k	0	1102	Wednesday
306	C	37	800	b	b	1	1385	Thursday
306	C	38	500	l	l	1	617	Sunday
306	C	39	1100	j	j	1	1161	Tuesday
306	C	40	1100	k	k	1	583	Monday
306	C	41	650	l	l	1	772	Sunday
306	C	42	500	k	k	1	585	Monday
306	C	43	1100	b	b	1	809	Thursday
306	C	44	500	h	h	1	1039	Wednesday
306	C	45	950	l	l	1	588	Sunday
306	C	46	800	k	k	1	833	Monday
306	C	47	950	h	h	1	687	Wednesday
306	C	48	800	j	j	1	1359	Tuesday
306	C	49	1100	b	b	1	665	Thursday
306	C	50	950	k	j	0	596	Monday
306	D	1	800	j	j	1	954	Tuesday
306	D	2	1100	l	l	1	741	Thursday
306	D	3	950	h	h	1	560	Monday
306	D	4	500	j	j	1	722	Tuesday
306	D	5	500	k	k	1	672	Wednesday
306	D	6	950	b	b	1	541	Sunday
306	D	7	650	j	j	1	810	Tuesday
306	D	8	950	h	h	1	706	Monday
306	D	9	650	k	k	1	720	Wednesday
306	D	10	1100	b	b	1	554	Sunday
306	D	11	950	l	l	1	1008	Thursday
306	D	12	650	k	k	1	626	Wednesday
306	D	13	800	l	l	1	709	Thursday
306	D	14	500	b	b	1	592	Sunday
306	D	15	1100	j	j	1	922	Tuesday
306	D	16	1100	h	h	1	656	Monday
306	D	17	650	b	b	1	605	Sunday
306	D	18	500	h	j	0	706	Monday
306	D	19	1100	l	l	1	746	Thursday
306	D	20	800	h	h	1	629	Monday
306	D	21	950	k	k	1	698	Wednesday
306	D	22	950	j	j	1	767	Tuesday
306	D	23	800	b	b	1	451	Sunday
306	D	24	800	k	k	1	779	Wednesday
306	D	25	650	h	h	1	887	Monday
306	D	26	500	l	l	1	876	Thursday
306	D	27	800	b	b	1	650	Sunday
306	D	28	650	h	h	1	596	Monday
306	D	29	500	b	b	1	623	Sunday
306	D	30	500	k	k	1	623	Wednesday
306	D	31	950	l	l	1	922	Thursday
306	D	32	1100	j	j	1	815	Tuesday
306	D	33	1100	k	k	1	775	Wednesday
306	D	34	950	b	b	1	506	Sunday
306	D	35	800	l	l	1	1052	Thursday
306	D	36	950	j	j	1	1228	Tuesday
306	D	37	650	b	b	1	532	Sunday
306	D	38	1100	k	k	1	634	Wednesday
306	D	39	500	l	l	1	716	Thursday
306	D	40	500	h	h	1	591	Monday
306	D	41	950	k	k	1	580	Wednesday
306	D	42	500	j	j	1	782	Tuesday
306	D	43	1100	h	h	1	530	Monday
306	D	44	800	j	j	1	914	Tuesday
306	D	45	800	k	k	1	583	Wednesday
306	D	46	1100	b	b	1	567	Sunday
306	D	47	650	l	l	1	986	Thursday
306	D	48	800	h	h	1	532	Monday
306	D	49	650	j	j	1	711	Tuesday
306	D	50	650	l	l	1	895	Thursday
306	E	1	950	j	j	1	550	Tuesday
306	E	2	800	b	b	1	459	Sunday
306	E	3	800	k	k	1	607	Wednesday
306	E	4	650	h	h	1	715	Monday
306	E	5	500	l	l	1	835	Thursday
306	E	6	800	b	b	1	602	Sunday
306	E	7	650	h	h	1	531	Monday
306	E	8	500	b	b	1	599	Sunday
306	E	9	500	k	k	1	1061	Wednesday
306	E	10	950	l	l	1	776	Thursday
306	E	11	1100	j	j	1	757	Tuesday
306	E	12	1100	k	k	1	723	Wednesday
306	E	13	950	b	b	1	877	Sunday
306	E	14	800	l	k	0	757	Thursday
306	E	15	950	j	j	1	496	Tuesday
306	E	16	650	b	b	1	501	Sunday
306	E	17	1100	k	k	1	752	Wednesday
306	E	18	500	l	l	1	475	Thursday
306	E	19	500	h	h	1	571	Monday
306	E	20	950	k	k	1	635	Wednesday
306	E	21	500	j	j	1	491	Tuesday
306	E	22	1100	h	h	1	610	Monday
306	E	23	800	j	j	1	680	Tuesday
306	E	24	800	k	k	1	501	Wednesday
306	E	25	1100	b	b	1	589	Sunday
306	E	26	500	j	j	1	631	Tuesday
306	E	27	650	l	l	1	715	Thursday
306	E	28	800	h	h	1	615	Monday
306	E	29	650	j	j	1	485	Tuesday
306	E	30	650	l	l	1	970	Thursday
306	E	31	650	j	j	1	626	Tuesday
306	E	32	950	h	h	1	655	Monday
306	E	33	650	k	k	1	493	Wednesday
306	E	34	1100	b	b	1	459	Sunday
306	E	35	950	l	l	1	743	Thursday
306	E	36	650	k	k	1	611	Wednesday
306	E	37	800	l	l	1	707	Thursday
306	E	38	500	b	b	1	752	Sunday
306	E	39	1100	j	j	1	568	Tuesday
306	E	40	1100	h	h	1	560	Monday
306	E	41	650	b	b	1	379	Sunday
306	E	42	500	h	h	1	637	Monday
306	E	43	1100	l	l	1	739	Thursday
306	E	44	500	k	k	1	707	Wednesday
306	E	45	950	b	b	1	555	Sunday
306	E	46	800	h	h	1	563	Monday
306	E	47	950	k	k	1	640	Wednesday
306	E	48	800	j	j	1	538	Tuesday
306	E	49	1100	l	l	1	1218	Thursday
306	E	50	950	h	h	1	539	Monday
306	F	1	950	h	h	1	640	Wednesday
306	F	2	800	k	k	1	637	Monday
306	F	3	950	l	l	1	538	Sunday
306	F	4	500	h	h	1	714	Wednesday
306	F	5	1100	b	b	1	605	Thursday
306	F	6	500	k	k	1	722	Monday
306	F	7	650	l	l	1	557	Sunday
306	F	8	1100	k	k	1	631	Monday
306	F	9	1100	j	j	1	641	Tuesday
306	F	10	500	l	l	1	623	Sunday
306	F	11	800	b	b	1	969	Thursday
306	F	12	650	h	h	1	884	Wednesday
306	F	13	950	b	b	1	716	Thursday
306	F	14	1100	l	l	1	591	Sunday
306	F	15	650	h	h	1	847	Wednesday
306	F	16	950	k	k	1	823	Monday
306	F	17	650	j	j	1	1132	Tuesday
306	F	18	650	b	b	1	1191	Thursday
306	F	19	650	j	j	1	1087	Tuesday
306	F	20	950	h	h	1	647	Wednesday
306	F	21	800	j	j	1	775	Tuesday
306	F	22	1100	l	l	1	639	Sunday
306	F	23	800	h	h	1	556	Wednesday
306	F	24	950	k	k	1	857	Monday
306	F	25	1100	b	b	1	577	Thursday
306	F	26	800	j	j	1	572	Tuesday
306	F	27	1100	k	k	1	505	Monday
306	F	28	500	j	j	1	649	Tuesday
306	F	29	500	k	k	1	871	Monday
306	F	30	500	b	b	1	681	Thursday
306	F	31	1100	h	h	1	615	Wednesday
306	F	32	650	l	l	1	628	Sunday
306	F	33	950	j	j	1	593	Tuesday
306	F	34	800	b	b	1	559	Thursday
306	F	35	950	l	l	1	764	Sunday
306	F	36	1100	h	h	1	618	Wednesday
306	F	37	1100	j	j	1	570	Tuesday
306	F	38	950	b	b	1	642	Thursday
306	F	39	500	h	h	1	679	Wednesday
306	F	40	500	l	l	1	546	Sunday
306	F	41	650	k	k	1	695	Monday
306	F	42	800	l	l	1	426	Sunday
306	F	43	500	b	b	1	642	Thursday
306	F	44	650	k	k	1	580	Monday
306	F	45	800	h	h	1	918	Wednesday
306	F	46	800	l	l	1	539	Sunday
306	F	47	950	j	j	1	630	Tuesday
306	F	48	800	k	k	1	755	Monday
306	F	49	650	b	b	1	587	Thursday
306	F	50	500	j	j	1	742	Tuesday
306	G	1	650	l	l	1	572	Thursday
306	G	2	650	j	k	0	1201	Tuesday
306	G	3	800	h	h	1	604	Monday
306	G	4	650	l	l	1	504	Thursday
306	G	5	1100	b	b	1	489	Sunday
306	G	6	800	k	k	1	569	Wednesday
306	G	7	800	j	j	1	801	Tuesday
306	G	8	1100	h	h	1	511	Monday
306	G	9	500	j	j	1	699	Tuesday
306	G	10	950	k	k	1	695	Wednesday
306	G	11	500	h	h	1	481	Monday
306	G	12	500	l	l	1	528	Thursday
306	G	13	1100	k	k	1	663	Wednesday
306	G	14	650	b	b	1	495	Sunday
306	G	15	950	j	j	1	604	Tuesday
306	G	16	800	l	l	1	526	Thursday
306	G	17	950	b	b	1	592	Sunday
306	G	18	1100	k	k	1	630	Wednesday
306	G	19	1100	j	j	1	572	Tuesday
306	G	20	950	l	l	1	495	Thursday
306	G	21	500	k	k	1	542	Wednesday
306	G	22	500	b	b	1	507	Sunday
306	G	23	650	h	h	1	439	Monday
306	G	24	800	b	j	0	446	Sunday
306	G	25	500	l	l	1	625	Thursday
306	G	26	650	h	h	1	496	Monday
306	G	27	800	k	k	1	574	Wednesday
306	G	28	800	b	b	1	470	Sunday
306	G	29	950	j	j	1	668	Tuesday
306	G	30	950	k	k	1	580	Wednesday
306	G	31	800	h	h	1	491	Monday
306	G	32	1100	l	l	1	974	Thursday
306	G	33	500	h	h	1	529	Monday
306	G	34	650	b	b	1	550	Sunday
306	G	35	1100	h	h	1	550	Monday
306	G	36	1100	j	j	1	784	Tuesday
306	G	37	500	b	b	1	572	Sunday
306	G	38	800	l	l	1	678	Thursday
306	G	39	650	k	k	1	719	Wednesday
306	G	40	950	l	l	1	531	Thursday
306	G	41	1100	b	b	1	569	Sunday
306	G	42	650	k	k	1	569	Wednesday
306	G	43	950	h	h	1	603	Monday
306	G	44	650	j	j	1	478	Tuesday
306	G	45	950	b	b	1	617	Sunday
306	G	46	500	k	k	1	595	Wednesday
306	G	47	500	j	j	1	609	Tuesday
306	G	48	950	h	h	1	571	Monday
306	G	49	1100	l	l	1	604	Thursday
306	G	50	800	j	j	1	750	Tuesday
306	H	1	800	j	j	1	652	Tuesday
306	H	2	1100	b	b	1	521	Thursday
306	H	3	950	k	k	1	769	Monday
306	H	4	500	j	j	1	775	Tuesday
306	H	5	500	h	h	1	743	Wednesday
306	H	6	950	l	l	1	513	Sunday
306	H	7	650	j	j	1	721	Tuesday
306	H	8	950	k	k	1	617	Monday
306	H	9	650	h	h	1	855	Wednesday
306	H	10	1100	l	l	1	575	Sunday
306	H	11	950	b	b	1	1057	Thursday
306	H	12	650	h	h	1	647	Wednesday
306	H	13	800	b	b	1	1015	Thursday
306	H	14	500	l	l	1	695	Sunday
306	H	15	1100	j	j	1	607	Tuesday
306	H	16	1100	k	k	1	604	Monday
306	H	17	650	l	l	1	599	Sunday
306	H	18	500	k	k	1	610	Monday
306	H	19	1100	b	b	1	543	Thursday
306	H	20	800	k	l	0	650	Monday
306	H	21	950	h	h	1	610	Wednesday
306	H	22	950	j	j	1	562	Tuesday
306	H	23	800	l	l	1	522	Sunday
306	H	24	800	h	h	1	746	Wednesday
306	H	25	650	k	k	1	991	Monday
306	H	26	500	b	b	1	722	Thursday
306	H	27	800	l	l	1	1042	Sunday
306	H	28	650	k	k	1	804	Monday
306	H	29	500	l	l	1	922	Sunday
306	H	30	500	h	h	1	767	Wednesday
306	H	31	950	b	b	1	663	Thursday
306	H	32	1100	j	j	1	951	Tuesday
306	H	33	1100	h	h	1	722	Wednesday
306	H	34	950	l	l	1	650	Sunday
306	H	35	800	b	b	1	538	Thursday
306	H	36	950	j	j	1	612	Tuesday
306	H	37	650	l	l	1	583	Sunday
306	H	38	1100	h	h	1	655	Wednesday
306	H	39	500	b	b	1	647	Thursday
306	H	40	500	k	k	1	757	Monday
306	H	41	950	h	h	1	578	Wednesday
306	H	42	500	j	j	1	706	Tuesday
306	H	43	1100	k	k	1	633	Monday
306	H	44	800	j	j	1	766	Tuesday
306	H	45	800	h	h	1	574	Wednesday
306	H	46	1100	l	l	1	742	Sunday
306	H	47	650	b	b	1	628	Thursday
306	H	48	800	k	k	1	593	Monday
306	H	49	650	j	j	1	521	Tuesday
306	H	50	650	b	b	1	532	Thursday
307	A	1	950	k	k	1	632	Wednesday
307	A	2	800	h	h	1	616	Monday
307	A	3	950	b	b	1	688	Sunday
307	A	4	500	k	k	1	747	Wednesday
307	A	5	1100	l	j	0	624	Thursday
307	A	6	500	h	h	1	707	Monday
307	A	7	650	b	b	1	734	Sunday
307	A	8	1100	j	j	1	683	Tuesday
307	A	9	800	l	l	1	641	Thursday
307	A	10	1100	h	h	1	601	Monday
307	A	11	500	b	b	1	721	Sunday
307	A	12	650	k	k	1	806	Wednesday
307	A	13	950	l	l	1	777	Thursday
307	A	14	1100	b	b	1	771	Sunday
307	A	15	650	k	k	1	673	Wednesday
307	A	16	950	h	h	1	569	Monday
307	A	17	650	j	j	1	718	Tuesday
307	A	18	650	l	l	1	905	Thursday
307	A	19	650	j	j	1	673	Tuesday
307	A	20	950	k	k	1	673	Wednesday
307	A	21	800	j	j	1	929	Tuesday
307	A	22	1100	b	b	1	513	Sunday
307	A	23	800	k	k	1	625	Wednesday
307	A	24	950	h	h	1	502	Monday
307	A	25	1100	l	l	1	897	Thursday
307	A	26	800	j	j	1	629	Tuesday
307	A	27	1100	h	h	1	706	Monday
307	A	28	500	j	j	1	906	Tuesday
307	A	29	500	h	h	1	610	Monday
307	A	30	500	l	l	1	668	Thursday
307	A	31	1100	k	k	1	429	Wednesday
307	A	32	650	b	b	1	736	Sunday
307	A	33	950	j	j	1	653	Tuesday
307	A	34	800	l	l	1	658	Thursday
307	A	35	950	b	b	1	592	Sunday
307	A	36	1100	k	k	1	653	Wednesday
307	A	37	1100	j	j	1	1070	Tuesday
307	A	38	950	l	l	1	730	Thursday
307	A	39	500	k	k	1	714	Wednesday
307	A	40	500	b	b	1	624	Sunday
307	A	41	650	h	h	1	488	Monday
307	A	42	800	b	b	1	674	Sunday
307	A	43	500	l	l	1	682	Thursday
307	A	44	650	h	b	0	554	Monday
307	A	45	800	k	k	1	666	Wednesday
307	A	46	800	b	h	0	666	Sunday
307	A	47	950	j	j	1	962	Tuesday
307	A	48	800	h	h	1	685	Monday
307	A	49	650	l	l	1	1080	Thursday
307	A	50	500	j	j	1	1080	Tuesday
307	B	1	650	b	b	1	841	Thursday
307	B	2	650	j	j	1	807	Tuesday
307	B	3	800	k	k	1	855	Monday
307	B	4	650	b	b	1	916	Thursday
307	B	5	1100	l	l	1	623	Sunday
307	B	6	800	h	h	1	586	Wednesday
307	B	7	800	j	j	1	964	Tuesday
307	B	8	1100	k	k	1	626	Monday
307	B	9	500	j	j	1	690	Tuesday
307	B	10	950	h	h	1	720	Wednesday
307	B	11	500	k	k	1	935	Monday
307	B	12	500	b	b	1	1007	Thursday
307	B	13	1100	h	h	1	652	Wednesday
307	B	14	650	l	l	1	511	Sunday
307	B	15	950	j	j	1	892	Tuesday
307	B	16	800	b	b	1	620	Thursday
307	B	17	950	l	l	1	805	Sunday
307	B	18	1100	h	h	1	455	Wednesday
307	B	19	1100	j	b	0	639	Tuesday
307	B	20	950	b	b	1	460	Thursday
307	B	21	500	h	h	1	699	Wednesday
307	B	22	500	l	l	1	1267	Sunday
307	B	23	650	k	k	1	611	Monday
307	B	24	800	l	l	1	435	Sunday
307	B	25	500	b	b	1	846	Thursday
307	B	26	650	k	j	0	721	Monday
307	B	27	800	h	h	1	617	Wednesday
307	B	28	800	l	l	1	587	Sunday
307	B	29	950	j	j	1	835	Tuesday
307	B	30	950	h	h	1	721	Wednesday
307	B	31	800	k	k	1	667	Monday
307	B	32	1100	b	b	1	974	Thursday
307	B	33	500	k	k	1	862	Monday
307	B	34	650	l	l	1	603	Sunday
307	B	35	1100	k	k	1	585	Monday
307	B	36	1100	j	j	1	849	Tuesday
307	B	37	500	l	l	1	638	Sunday
307	B	38	800	b	b	1	579	Thursday
307	B	39	650	h	h	1	593	Wednesday
307	B	40	950	b	b	1	614	Thursday
307	B	41	1100	l	l	1	590	Sunday
307	B	42	650	h	h	1	724	Wednesday
307	B	43	950	k	k	1	689	Monday
307	B	44	650	j	j	1	1067	Tuesday
307	B	45	950	l	l	1	529	Sunday
307	B	46	500	h	h	1	510	Wednesday
307	B	47	500	j	j	1	953	Tuesday
307	B	48	950	k	k	1	622	Monday
307	B	49	1100	b	b	1	812	Thursday
307	B	50	800	j	j	1	689	Tuesday
307	C	1	950	j	j	1	698	Tuesday
307	C	2	800	l	l	1	669	Sunday
307	C	3	800	h	h	1	654	Wednesday
307	C	4	650	k	k	1	1146	Monday
307	C	5	500	b	b	1	1018	Thursday
307	C	6	800	l	l	1	597	Sunday
307	C	7	650	k	k	1	717	Monday
307	C	8	500	l	l	1	696	Sunday
307	C	9	500	h	h	1	536	Wednesday
307	C	10	950	b	b	1	930	Thursday
307	C	11	1100	j	j	1	528	Tuesday
307	C	12	1100	h	h	1	613	Wednesday
307	C	13	950	l	l	1	557	Sunday
307	C	14	800	b	b	1	858	Thursday
307	C	15	950	j	j	1	653	Tuesday
307	C	16	650	l	l	1	576	Sunday
307	C	17	1100	h	h	1	652	Wednesday
307	C	18	500	b	b	1	938	Thursday
307	C	19	500	k	k	1	586	Monday
307	C	20	950	h	h	1	597	Wednesday
307	C	21	500	j	j	1	984	Tuesday
307	C	22	1100	k	k	1	694	Monday
307	C	23	800	j	j	1	770	Tuesday
307	C	24	800	h	h	1	418	Wednesday
307	C	25	1100	l	l	1	434	Sunday
307	C	26	500	j	j	1	805	Tuesday
307	C	27	650	b	b	1	1128	Thursday
307	C	28	800	k	k	1	776	Monday
307	C	29	650	j	j	1	687	Tuesday
307	C	30	650	b	b	1	861	Thursday
307	C	31	650	j	j	1	707	Tuesday
307	C	32	950	k	k	1	597	Monday
307	C	33	650	h	h	1	557	Wednesday
307	C	34	1100	l	l	1	616	Sunday
307	C	35	950	b	b	1	1067	Thursday
307	C	36	650	h	h	1	504	Wednesday
307	C	37	800	b	b	1	739	Thursday
307	C	38	500	l	l	1	618	Sunday
307	C	39	1100	j	j	1	698	Tuesday
307	C	40	1100	k	k	1	610	Monday
307	C	41	650	l	l	1	492	Sunday
307	C	42	500	k	k	1	666	Monday
307	C	43	1100	b	b	1	722	Thursday
307	C	44	500	h	h	1	651	Wednesday
307	C	45	950	l	l	1	620	Sunday
307	C	46	800	k	k	1	583	Monday
307	C	47	950	h	h	1	602	Wednesday
307	C	48	800	j	j	1	754	Tuesday
307	C	49	1100	b	b	1	620	Thursday
307	C	50	950	k	k	1	591	Monday
307	D	1	800	j	j	1	775	Tuesday
307	D	2	1100	l	l	1	759	Thursday
307	D	3	950	h	h	1	700	Monday
307	D	4	500	j	j	1	612	Tuesday
307	D	5	500	k	k	1	657	Wednesday
307	D	6	950	b	b	1	676	Sunday
307	D	7	650	j	j	1	876	Tuesday
307	D	8	950	h	h	1	593	Monday
307	D	9	650	k	k	1	521	Wednesday
307	D	10	1100	b	b	1	615	Sunday
307	D	11	950	l	l	1	787	Thursday
307	D	12	650	k	k	1	1031	Wednesday
307	D	13	800	l	l	1	732	Thursday
307	D	14	500	b	b	1	649	Sunday
307	D	15	1100	j	j	1	967	Tuesday
307	D	16	1100	h	h	1	635	Monday
307	D	17	650	b	b	1	659	Sunday
307	D	18	500	h	h	1	571	Monday
307	D	19	1100	l	l	1	880	Thursday
307	D	20	800	h	h	1	592	Monday
307	D	21	950	k	k	1	750	Wednesday
307	D	22	950	j	j	1	883	Tuesday
307	D	23	800	b	b	1	571	Sunday
307	D	24	800	k	k	1	1075	Wednesday
307	D	25	650	h	h	1	587	Monday
307	D	26	500	l	l	1	662	Thursday
307	D	27	800	b	b	1	713	Sunday
307	D	28	650	h	h	1	481	Monday
307	D	29	500	b	b	1	760	Sunday
307	D	30	500	k	k	1	745	Wednesday
307	D	31	950	l	l	1	731	Thursday
307	D	32	1100	j	j	1	513	Tuesday
307	D	33	1100	k	k	1	747	Wednesday
307	D	34	950	b	b	1	553	Sunday
307	D	35	800	l	l	1	1054	Thursday
307	D	36	950	j	j	1	569	Tuesday
307	D	37	650	b	b	1	723	Sunday
307	D	38	1100	k	k	1	697	Wednesday
307	D	39	500	l	l	1	1145	Thursday
307	D	40	500	h	h	1	1025	Monday
307	D	41	950	k	k	1	1139	Wednesday
307	D	42	500	j	j	1	1075	Tuesday
307	D	43	1100	h	j	0	1406	Monday
307	D	44	800	j	j	1	918	Tuesday
307	D	45	800	k	k	1	627	Wednesday
307	D	46	1100	b	b	1	550	Sunday
307	D	47	650	l	l	1	758	Thursday
307	D	48	800	h	h	1	715	Monday
307	D	49	650	j	j	1	923	Tuesday
307	D	50	650	l	l	1	752	Thursday
307	E	1	950	j	j	1	764	Tuesday
307	E	2	800	b	b	1	564	Sunday
307	E	3	800	k	k	1	636	Wednesday
307	E	4	650	h	h	1	596	Monday
307	E	5	500	l	l	1	558	Thursday
307	E	6	800	b	b	1	452	Sunday
307	E	7	650	h	h	1	478	Monday
307	E	8	500	b	b	1	625	Sunday
307	E	9	500	k	k	1	553	Wednesday
307	E	10	950	l	l	1	534	Thursday
307	E	11	1100	j	j	1	598	Tuesday
307	E	12	1100	k	k	1	665	Wednesday
307	E	13	950	b	b	1	460	Sunday
307	E	14	800	l	l	1	577	Thursday
307	E	15	950	j	j	1	675	Tuesday
307	E	16	650	b	b	1	427	Sunday
307	E	17	1100	k	k	1	686	Wednesday
307	E	18	500	l	l	1	555	Thursday
307	E	19	500	h	h	1	542	Monday
307	E	20	950	k	k	1	680	Wednesday
307	E	21	500	j	j	1	678	Tuesday
307	E	22	1100	h	h	1	696	Monday
307	E	23	800	j	j	1	467	Tuesday
307	E	24	800	k	k	1	368	Wednesday
307	E	25	1100	b	b	1	406	Sunday
307	E	26	500	j	j	1	515	Tuesday
307	E	27	650	l	l	1	595	Thursday
307	E	28	800	h	h	1	504	Monday
307	E	29	650	j	j	1	590	Tuesday
307	E	30	650	l	l	1	510	Thursday
307	E	31	650	j	j	1	622	Tuesday
307	E	32	950	h	h	1	368	Monday
307	E	33	650	k	k	1	483	Wednesday
307	E	34	1100	b	b	1	568	Sunday
307	E	35	950	l	l	1	608	Thursday
307	E	36	650	k	k	1	915	Wednesday
307	E	37	800	l	l	1	728	Thursday
307	E	38	500	b	b	1	494	Sunday
307	E	39	1100	j	j	1	566	Tuesday
307	E	40	1100	h	h	1	363	Monday
307	E	41	650	b	b	1	494	Sunday
307	E	42	500	h	h	1	579	Monday
307	E	43	1100	l	l	1	851	Thursday
307	E	44	500	k	k	1	520	Wednesday
307	E	45	950	b	b	1	734	Sunday
307	E	46	800	h	h	1	590	Monday
307	E	47	950	k	k	1	771	Wednesday
307	E	48	800	j	j	1	595	Tuesday
307	E	49	1100	l	l	1	582	Thursday
307	E	50	950	h	h	1	496	Monday
307	F	1	950	h	h	1	676	Wednesday
307	F	2	800	k	k	1	788	Monday
307	F	3	950	l	l	1	515	Sunday
307	F	4	500	h	h	1	908	Wednesday
307	F	5	1100	b	b	1	558	Thursday
307	F	6	500	k	k	1	534	Monday
307	F	7	650	l	l	1	516	Sunday
307	F	8	1100	k	k	1	616	Monday
307	F	9	1100	j	j	1	553	Tuesday
307	F	10	500	l	l	1	708	Sunday
307	F	11	800	b	b	1	662	Thursday
307	F	12	650	h	h	1	508	Wednesday
307	F	13	950	b	b	1	638	Thursday
307	F	14	1100	l	l	1	503	Sunday
307	F	15	650	h	h	1	838	Wednesday
307	F	16	950	k	k	1	543	Monday
307	F	17	650	j	j	1	409	Tuesday
307	F	18	650	b	b	1	686	Thursday
307	F	19	650	j	j	1	745	Tuesday
307	F	20	950	h	h	1	537	Wednesday
307	F	21	800	j	j	1	625	Tuesday
307	F	22	1100	l	l	1	857	Sunday
307	F	23	800	h	h	1	606	Wednesday
307	F	24	950	k	k	1	532	Monday
307	F	25	1100	b	b	1	564	Thursday
307	F	26	800	j	j	1	590	Tuesday
307	F	27	1100	k	k	1	820	Monday
307	F	28	500	j	j	1	734	Tuesday
307	F	29	500	k	k	1	774	Monday
307	F	30	500	b	b	1	708	Thursday
307	F	31	1100	h	h	1	558	Wednesday
307	F	32	650	l	l	1	521	Sunday
307	F	33	950	j	j	1	599	Tuesday
307	F	34	800	b	b	1	596	Thursday
307	F	35	950	l	l	1	526	Sunday
307	F	36	1100	h	h	1	647	Wednesday
307	F	37	1100	j	j	1	1078	Tuesday
307	F	38	950	b	b	1	756	Thursday
307	F	39	500	h	h	1	537	Wednesday
307	F	40	500	l	l	1	660	Sunday
307	F	41	650	k	k	1	507	Monday
307	F	42	800	l	l	1	553	Sunday
307	F	43	500	b	b	1	633	Thursday
307	F	44	650	k	k	1	622	Monday
307	F	45	800	h	h	1	817	Wednesday
307	F	46	800	l	l	1	609	Sunday
307	F	47	950	j	j	1	705	Tuesday
307	F	48	800	k	k	1	577	Monday
307	F	49	650	b	b	1	540	Thursday
307	F	50	500	j	j	1	686	Tuesday
307	G	1	650	l	l	1	553	Thursday
307	G	2	650	j	j	1	555	Tuesday
307	G	3	800	h	h	1	515	Monday
307	G	4	650	l	l	1	529	Thursday
307	G	5	1100	b	b	1	537	Sunday
307	G	6	800	k	k	1	499	Wednesday
307	G	7	800	j	j	1	585	Tuesday
307	G	8	1100	h	h	1	569	Monday
307	G	9	500	j	j	1	729	Tuesday
307	G	10	950	k	k	1	545	Wednesday
307	G	11	500	h	h	1	563	Monday
307	G	12	500	l	l	1	601	Thursday
307	G	13	1100	k	k	1	409	Wednesday
307	G	14	650	b	b	1	499	Sunday
307	G	15	950	j	j	1	529	Tuesday
307	G	16	800	l	l	1	622	Thursday
307	G	17	950	b	b	1	521	Sunday
307	G	18	1100	k	k	1	486	Wednesday
307	G	19	1100	j	j	1	518	Tuesday
307	G	20	950	l	l	1	433	Thursday
307	G	21	500	k	k	1	579	Wednesday
307	G	22	500	b	b	1	548	Sunday
307	G	23	650	h	h	1	544	Monday
307	G	24	800	b	b	1	558	Sunday
307	G	25	500	l	l	1	681	Thursday
307	G	26	650	h	h	1	625	Monday
307	G	27	800	k	k	1	505	Wednesday
307	G	28	800	b	b	1	475	Sunday
307	G	29	950	j	j	1	486	Tuesday
307	G	30	950	k	k	1	462	Wednesday
307	G	31	800	h	h	1	390	Monday
307	G	32	1100	l	l	1	541	Thursday
307	G	33	500	h	h	1	571	Monday
307	G	34	650	b	b	1	577	Sunday
307	G	35	1100	h	h	1	537	Monday
307	G	36	1100	j	j	1	529	Tuesday
307	G	37	500	b	b	1	678	Sunday
307	G	38	800	l	l	1	325	Thursday
307	G	39	650	k	k	1	435	Wednesday
307	G	40	950	l	l	1	465	Thursday
307	G	41	1100	b	b	1	557	Sunday
307	G	42	650	k	k	1	638	Wednesday
307	G	43	950	h	h	1	547	Monday
307	G	44	650	j	j	1	523	Tuesday
307	G	45	950	b	b	1	475	Sunday
307	G	46	500	k	k	1	587	Wednesday
307	G	47	500	j	j	1	555	Tuesday
307	G	48	950	h	h	1	358	Monday
307	G	49	1100	l	l	1	579	Thursday
307	G	50	800	j	j	1	651	Tuesday
307	H	1	800	j	j	1	783	Tuesday
307	H	2	1100	b	b	1	567	Thursday
307	H	3	950	k	k	1	583	Monday
307	H	4	500	j	j	1	831	Tuesday
307	H	5	500	h	h	1	626	Wednesday
307	H	6	950	l	l	1	477	Sunday
307	H	7	650	j	j	1	597	Tuesday
307	H	8	950	k	k	1	714	Monday
307	H	9	650	h	h	1	562	Wednesday
307	H	10	1100	l	l	1	824	Sunday
307	H	11	950	b	h	0	610	Thursday
307	H	12	650	h	h	1	717	Wednesday
307	H	13	800	b	b	1	738	Thursday
307	H	14	500	l	l	1	626	Sunday
307	H	15	1100	j	j	1	858	Tuesday
307	H	16	1100	k	k	1	642	Monday
307	H	17	650	l	l	1	725	Sunday
307	H	18	500	k	k	1	690	Monday
307	H	19	1100	b	b	1	672	Thursday
307	H	20	800	k	k	1	749	Monday
307	H	21	950	h	h	1	418	Wednesday
307	H	22	950	j	j	1	381	Tuesday
307	H	23	800	l	l	1	576	Sunday
307	H	24	800	h	h	1	650	Wednesday
307	H	25	650	k	k	1	693	Monday
307	H	26	500	b	b	1	578	Thursday
307	H	27	800	l	l	1	629	Sunday
307	H	28	650	k	k	1	621	Monday
307	H	29	500	l	l	1	629	Sunday
307	H	30	500	h	h	1	552	Wednesday
307	H	31	950	b	b	1	613	Thursday
307	H	32	1100	j	j	1	547	Tuesday
307	H	33	1100	h	h	1	619	Wednesday
307	H	34	950	l	l	1	589	Sunday
307	H	35	800	b	b	1	587	Thursday
307	H	36	950	j	j	1	741	Tuesday
307	H	37	650	l	l	1	611	Sunday
307	H	38	1100	h	h	1	584	Wednesday
307	H	39	500	b	b	1	648	Thursday
307	H	40	500	k	k	1	613	Monday
307	H	41	950	h	h	1	621	Wednesday
307	H	42	500	j	j	1	541	Tuesday
307	H	43	1100	k	k	1	613	Monday
307	H	44	800	j	j	1	828	Tuesday
307	H	45	800	h	h	1	595	Wednesday
307	H	46	1100	l	l	1	572	Sunday
307	H	47	650	b	b	1	559	Thursday
307	H	48	800	k	k	1	524	Monday
307	H	49	650	j	j	1	639	Tuesday
307	H	50	650	b	b	1	623	Thursday
308	A	1	950	k	k	1	789	Wednesday
308	A	2	800	h	h	1	708	Monday
308	A	3	950	b	b	1	597	Sunday
308	A	4	500	k	k	1	697	Wednesday
308	A	5	1100	l	l	1	2429	Thursday
308	A	6	500	h	h	1	783	Monday
308	A	7	650	b	b	1	693	Sunday
308	A	8	1100	j	j	1	1106	Tuesday
308	A	9	800	l	l	1	1505	Thursday
308	A	10	1100	h	h	1	626	Monday
308	A	11	500	b	b	1	1106	Sunday
308	A	12	650	k	k	1	800	Wednesday
308	A	13	950	l	l	1	1111	Thursday
308	A	14	1100	b	b	1	789	Sunday
308	A	15	650	k	k	1	933	Wednesday
308	A	16	950	h	h	1	765	Monday
308	A	17	650	j	j	1	712	Tuesday
308	A	18	650	l	l	1	1110	Thursday
308	A	19	650	j	j	1	714	Tuesday
308	A	20	950	k	k	1	682	Wednesday
308	A	21	800	j	j	1	882	Tuesday
308	A	22	1100	b	b	1	792	Sunday
308	A	23	800	k	k	1	661	Wednesday
308	A	24	950	h	h	1	504	Monday
308	A	25	1100	l	l	1	1110	Thursday
308	A	26	800	j	j	1	692	Tuesday
308	A	27	1100	h	h	1	657	Monday
308	A	28	500	j	j	1	793	Tuesday
308	A	29	500	h	h	1	660	Monday
308	A	30	500	l	l	1	612	Thursday
308	A	31	1100	k	k	1	546	Wednesday
308	A	32	650	b	b	1	743	Sunday
308	A	33	950	j	j	1	722	Tuesday
308	A	34	800	l	l	1	762	Thursday
308	A	35	950	b	b	1	914	Sunday
308	A	36	1100	k	k	1	668	Wednesday
308	A	37	1100	j	j	1	599	Tuesday
308	A	38	950	l	l	1	676	Thursday
308	A	39	500	k	k	1	721	Wednesday
308	A	40	500	b	b	1	730	Sunday
308	A	41	650	h	h	1	612	Monday
308	A	42	800	b	b	1	804	Sunday
308	A	43	500	l	l	1	938	Thursday
308	A	44	650	h	h	1	623	Monday
308	A	45	800	k	k	1	658	Wednesday
308	A	46	800	b	b	1	700	Sunday
308	A	47	950	j	j	1	735	Tuesday
308	A	48	800	h	h	1	626	Monday
308	A	49	650	l	l	1	935	Thursday
308	A	50	500	j	j	1	679	Tuesday
308	B	1	650	b	b	1	1365	Thursday
308	B	2	650	j	j	1	776	Tuesday
308	B	3	800	k	k	1	845	Monday
308	B	4	650	b	b	1	1019	Thursday
308	B	5	1100	l	l	1	809	Sunday
308	B	6	800	h	h	1	749	Wednesday
308	B	7	800	j	j	1	651	Tuesday
308	B	8	1100	k	k	1	726	Monday
308	B	9	500	j	j	1	552	Tuesday
308	B	10	950	h	h	1	773	Wednesday
308	B	11	500	k	k	1	837	Monday
308	B	12	500	b	b	1	843	Thursday
308	B	13	1100	h	h	1	1248	Wednesday
308	B	14	650	l	l	1	827	Sunday
308	B	15	950	j	j	1	854	Tuesday
308	B	16	800	b	b	1	470	Thursday
308	B	17	950	l	l	1	939	Sunday
308	B	18	1100	h	h	1	771	Wednesday
308	B	19	1100	j	j	1	920	Tuesday
308	B	20	950	b	b	1	646	Thursday
308	B	21	500	h	h	1	845	Wednesday
308	B	22	500	l	l	1	694	Sunday
308	B	23	650	k	k	1	800	Monday
308	B	24	800	l	l	1	805	Sunday
308	B	25	500	b	b	1	898	Thursday
308	B	26	650	k	k	1	911	Monday
308	B	27	800	h	h	1	653	Wednesday
308	B	28	800	l	l	1	661	Sunday
308	B	29	950	j	j	1	647	Tuesday
308	B	30	950	h	h	1	823	Wednesday
308	B	31	800	k	k	1	754	Monday
308	B	32	1100	b	b	1	885	Thursday
308	B	33	500	k	k	1	1122	Monday
308	B	34	650	l	l	1	845	Sunday
308	B	35	1100	k	k	1	1322	Monday
308	B	36	1100	j	j	1	879	Tuesday
308	B	37	500	l	l	1	850	Sunday
308	B	38	800	b	b	1	954	Thursday
308	B	39	650	h	h	1	818	Wednesday
308	B	40	950	b	b	1	1269	Thursday
308	B	41	1100	l	l	1	664	Sunday
308	B	42	650	h	h	1	653	Wednesday
308	B	43	950	k	k	1	853	Monday
308	B	44	650	j	j	1	776	Tuesday
308	B	45	950	l	l	1	800	Sunday
308	B	46	500	h	h	1	712	Wednesday
308	B	47	500	j	j	1	962	Tuesday
308	B	48	950	k	k	1	586	Monday
308	B	49	1100	b	b	1	962	Thursday
308	B	50	800	j	j	1	706	Tuesday
308	C	1	950	j	j	1	1196	Tuesday
308	C	2	800	l	l	1	1125	Sunday
308	C	3	800	h	h	1	834	Wednesday
308	C	4	650	k	k	1	832	Monday
308	C	5	500	b	b	1	957	Thursday
308	C	6	800	l	l	1	680	Sunday
308	C	7	650	k	k	1	749	Monday
308	C	8	500	l	l	1	877	Sunday
308	C	9	500	h	h	1	704	Wednesday
308	C	10	950	b	b	1	999	Thursday
308	C	11	1100	j	j	1	565	Tuesday
308	C	12	1100	h	h	1	620	Wednesday
308	C	13	950	l	l	1	654	Sunday
308	C	14	800	b	b	1	1142	Thursday
308	C	15	950	j	j	1	677	Tuesday
308	C	16	650	l	l	1	684	Sunday
308	C	17	1100	h	h	1	696	Wednesday
308	C	18	500	b	b	1	1179	Thursday
308	C	19	500	k	k	1	1009	Monday
308	C	20	950	h	h	1	828	Wednesday
308	C	21	500	j	j	1	793	Tuesday
308	C	22	1100	k	k	1	982	Monday
308	C	23	800	j	j	1	1361	Tuesday
308	C	24	800	h	h	1	772	Wednesday
308	C	25	1100	l	l	1	778	Sunday
308	C	26	500	j	j	1	865	Tuesday
308	C	27	650	b	b	1	662	Thursday
308	C	28	800	k	k	1	709	Monday
308	C	29	650	j	j	1	897	Tuesday
308	C	30	650	b	b	1	765	Thursday
308	C	31	650	j	j	1	878	Tuesday
308	C	32	950	k	k	1	687	Monday
308	C	33	650	h	h	1	1035	Wednesday
308	C	34	1100	l	l	1	943	Sunday
308	C	35	950	b	b	1	844	Thursday
308	C	36	650	h	h	1	890	Wednesday
308	C	37	800	b	b	1	976	Thursday
308	C	38	500	l	l	1	679	Sunday
308	C	39	1100	j	j	1	841	Tuesday
308	C	40	1100	k	k	1	1189	Monday
308	C	41	650	l	l	1	595	Sunday
308	C	42	500	k	k	1	692	Monday
308	C	43	1100	b	b	1	917	Thursday
308	C	44	500	h	h	1	871	Wednesday
308	C	45	950	l	l	1	695	Sunday
308	C	46	800	k	k	1	837	Monday
308	C	47	950	h	h	1	847	Wednesday
308	C	48	800	j	j	1	999	Tuesday
308	C	49	1100	b	b	1	780	Thursday
308	C	50	950	k	k	1	817	Monday
308	D	1	800	j	j	1	1417	Tuesday
308	D	2	1100	l	l	1	781	Thursday
308	D	3	950	h	h	1	657	Monday
308	D	4	500	j	j	1	1469	Tuesday
308	D	5	500	k	k	1	999	Wednesday
308	D	6	950	b	b	1	721	Sunday
308	D	7	650	j	j	1	923	Tuesday
308	D	8	950	h	h	1	712	Monday
308	D	9	650	k	k	1	892	Wednesday
308	D	10	1100	b	b	1	877	Sunday
308	D	11	950	l	l	1	1366	Thursday
308	D	12	650	k	k	1	886	Wednesday
308	D	13	800	l	l	1	1052	Thursday
308	D	14	500	b	b	1	774	Sunday
308	D	15	1100	j	j	1	766	Tuesday
308	D	16	1100	h	h	1	584	Monday
308	D	17	650	b	b	1	2001	Sunday
308	D	18	500	h	h	1	792	Monday
308	D	19	1100	l	l	1	1425	Thursday
308	D	20	800	h	h	1	1000	Monday
308	D	21	950	k	k	1	1009	Wednesday
308	D	22	950	j	j	1	915	Tuesday
308	D	23	800	b	b	1	912	Sunday
308	D	24	800	k	k	1	973	Wednesday
308	D	25	650	h	h	1	644	Monday
308	D	26	500	l	l	1	1000	Thursday
308	D	27	800	b	b	1	920	Sunday
308	D	28	650	h	h	1	883	Monday
308	D	29	500	b	b	1	765	Sunday
308	D	30	500	k	k	1	957	Wednesday
308	D	31	950	l	l	1	905	Thursday
308	D	32	1100	j	j	1	976	Tuesday
308	D	33	1100	k	k	1	1221	Wednesday
308	D	34	950	b	b	1	671	Sunday
308	D	35	800	l	l	1	1061	Thursday
308	D	36	950	j	j	1	1317	Tuesday
308	D	37	650	b	b	1	664	Sunday
308	D	38	1100	k	k	1	747	Wednesday
308	D	39	500	l	l	1	755	Thursday
308	D	40	500	h	h	1	795	Monday
308	D	41	950	k	k	1	782	Wednesday
308	D	42	500	j	j	1	877	Tuesday
308	D	43	1100	h	h	1	631	Monday
308	D	44	800	j	j	1	992	Tuesday
308	D	45	800	k	k	1	728	Wednesday
308	D	46	1100	b	b	1	585	Sunday
308	D	47	650	l	l	1	777	Thursday
308	D	48	800	h	h	1	676	Monday
308	D	49	650	j	j	1	984	Tuesday
308	D	50	650	l	l	1	703	Thursday
308	E	1	950	j	j	1	689	Tuesday
308	E	2	800	b	b	1	649	Sunday
308	E	3	800	k	k	1	673	Wednesday
308	E	4	650	h	h	1	609	Monday
308	E	5	500	l	l	1	943	Thursday
308	E	6	800	b	b	1	593	Sunday
308	E	7	650	h	h	1	792	Monday
308	E	8	500	b	b	1	731	Sunday
308	E	9	500	k	k	1	592	Wednesday
308	E	10	950	l	l	1	790	Thursday
308	E	11	1100	j	j	1	1184	Tuesday
308	E	12	1100	k	k	1	736	Wednesday
308	E	13	950	b	b	1	587	Sunday
308	E	14	800	l	l	1	664	Thursday
308	E	15	950	j	j	1	795	Tuesday
308	E	16	650	b	b	1	795	Sunday
308	E	17	1100	k	k	1	646	Wednesday
308	E	18	500	l	l	1	611	Thursday
308	E	19	500	h	h	1	848	Monday
308	E	20	950	k	k	1	584	Wednesday
308	E	21	500	j	j	1	560	Tuesday
308	E	22	1100	h	h	1	574	Monday
308	E	23	800	j	k	0	528	Tuesday
308	E	24	800	k	k	1	608	Wednesday
308	E	25	1100	b	b	1	782	Sunday
308	E	26	500	j	j	1	654	Tuesday
308	E	27	650	l	l	1	667	Thursday
308	E	28	800	h	h	1	600	Monday
308	E	29	650	j	j	1	611	Tuesday
308	E	30	650	l	l	1	646	Thursday
308	E	31	650	j	j	1	721	Tuesday
308	E	32	950	h	h	1	585	Monday
308	E	33	650	k	k	1	686	Wednesday
308	E	34	1100	b	b	1	523	Sunday
308	E	35	950	l	l	1	627	Thursday
308	E	36	650	k	k	1	571	Wednesday
308	E	37	800	l	l	1	915	Thursday
308	E	38	500	b	b	1	798	Sunday
308	E	39	1100	j	j	1	793	Tuesday
308	E	40	1100	h	h	1	547	Monday
308	E	41	650	b	b	1	571	Sunday
308	E	42	500	h	h	1	657	Monday
308	E	43	1100	l	l	1	769	Thursday
308	E	44	500	k	k	1	694	Wednesday
308	E	45	950	b	b	1	673	Sunday
308	E	46	800	h	h	1	646	Monday
308	E	47	950	k	k	1	598	Wednesday
308	E	48	800	j	j	1	627	Tuesday
308	E	49	1100	l	l	1	710	Thursday
308	E	50	950	h	h	1	723	Monday
308	F	1	950	h	h	1	717	Wednesday
308	F	2	800	k	k	1	571	Monday
308	F	3	950	l	l	1	547	Sunday
308	F	4	500	h	h	1	653	Wednesday
308	F	5	1100	b	b	1	621	Thursday
308	F	6	500	k	k	1	605	Monday
308	F	7	650	l	l	1	592	Sunday
308	F	8	1100	k	k	1	627	Monday
308	F	9	1100	j	j	1	477	Tuesday
308	F	10	500	l	l	1	632	Sunday
308	F	11	800	b	b	1	653	Thursday
308	F	12	650	h	h	1	787	Wednesday
308	F	13	950	b	b	1	704	Thursday
308	F	14	1100	l	l	1	552	Sunday
308	F	15	650	h	h	1	1104	Wednesday
308	F	16	950	k	k	1	659	Monday
308	F	17	650	j	j	1	680	Tuesday
308	F	18	650	b	b	1	683	Thursday
308	F	19	650	j	j	1	910	Tuesday
308	F	20	950	h	h	1	515	Wednesday
308	F	21	800	j	j	1	736	Tuesday
308	F	22	1100	l	l	1	928	Sunday
308	F	23	800	h	h	1	1008	Wednesday
308	F	24	950	k	k	1	712	Monday
308	F	25	1100	b	b	1	723	Thursday
308	F	26	800	j	j	1	787	Tuesday
308	F	27	1100	k	k	1	542	Monday
308	F	28	500	j	j	1	646	Tuesday
308	F	29	500	k	k	1	691	Monday
308	F	30	500	b	b	1	768	Thursday
308	F	31	1100	h	h	1	622	Wednesday
308	F	32	650	l	l	1	667	Sunday
308	F	33	950	j	j	1	648	Tuesday
308	F	34	800	b	b	1	824	Thursday
308	F	35	950	l	l	1	587	Sunday
308	F	36	1100	h	h	1	926	Wednesday
308	F	37	1100	j	j	1	747	Tuesday
308	F	38	950	b	b	1	824	Thursday
308	F	39	500	h	h	1	712	Wednesday
308	F	40	500	l	l	1	563	Sunday
308	F	41	650	k	k	1	606	Monday
308	F	42	800	l	l	1	734	Sunday
