Subject	Mapping	Trial	Interval	CorrectResponse	Given Response	Accuracy	RT	Stimulus
101	A	1	950	k	k	1	753	4
101	A	2	800	h	h	1	567	2
101	A	3	950	b	b	1	475	1
101	A	4	500	k	k	1	767	4
101	A	5	1100	l	l	1	379	5
101	A	6	500	h	h	1	687	2
101	A	7	650	b	b	1	590	1
101	A	8	1100	h	h	1	583	2
101	A	9	1100	j	j	1	768	3
101	A	10	500	b	b	1	731	1
101	A	11	800	l	l	1	489	5
101	A	12	650	k	k	1	724	4
101	A	13	950	l	l	1	522	5
101	A	14	1100	b	b	1	593	1
101	A	15	650	k	k	1	647	4
101	A	16	950	h	h	1	703	2
101	A	17	650	j	j	1	870	3
101	A	18	650	l	l	1	493	5
101	A	19	650	j	j	1	794	3
101	A	20	950	k	k	1	580	4
101	A	21	800	j	j	1	909	3
101	A	22	1100	b	b	1	462	1
101	A	23	800	k	k	1	643	4
101	A	24	950	h	h	1	675	2
101	A	25	1100	l	l	1	581	5
101	A	26	800	j	j	1	696	3
101	A	27	1100	h	h	1	518	2
101	A	28	500	j	j	1	621	3
101	A	29	500	h	h	1	577	2
101	A	30	500	l	l	1	576	5
101	A	31	1100	k	k	1	843	4
101	A	32	650	b	b	1	538	1
101	A	33	950	j	j	1	2037	3
101	A	34	800	l	l	1	506	5
101	A	35	950	b	b	1	480	1
101	A	36	1100	k	k	1	726	4
101	A	37	1100	j	j	1	829	3
101	A	38	950	l	l	1	584	5
101	A	39	500	k	k	1	697	4
101	A	40	500	b	b	1	904	1
101	A	41	650	h	h	1	563	2
101	A	42	800	b	b	1	512	1
101	A	43	500	l	l	1	592	5
101	A	44	650	h	h	1	515	2
101	A	45	800	k	k	1	649	4
101	A	46	800	b	b	1	805	1
101	A	47	950	j	j	1	672	3
101	A	48	800	h	h	1	590	2
101	A	49	650	l	l	1	523	5
101	A	50	500	j	j	1	938	3
101	B	1	950	j	j	1	1204	3
101	B	2	800	l	l	1	415	1
101	B	3	800	h	h	1	977	4
101	B	4	650	k	k	1	673	2
101	B	5	500	b	b	1	601	5
101	B	6	800	l	l	1	601	1
101	B	7	650	k	k	1	777	2
101	B	8	500	l	l	1	591	1
101	B	9	500	h	h	1	809	4
101	B	10	950	b	b	1	633	5
101	B	11	1100	j	j	1	612	3
101	B	12	1100	h	h	1	825	4
101	B	13	950	l	l	1	505	1
101	B	14	800	b	b	1	691	5
101	B	15	950	j	j	1	438	3
101	B	16	650	l	l	1	496	1
101	B	17	1100	h	h	1	921	4
101	B	18	500	b	b	1	851	5
101	B	19	500	k	k	1	686	2
101	B	20	950	h	h	1	750	4
101	B	21	500	j	j	1	835	3
101	B	22	1100	k	k	1	593	2
101	B	23	800	j	j	1	1096	3
101	B	24	800	h	h	1	970	4
101	B	25	1100	l	l	1	478	1
101	B	26	500	j	h	0	375	3
101	B	27	650	b	b	1	1147	5
101	B	28	800	k	k	1	709	2
101	B	29	650	j	j	1	571	3
101	B	30	650	b	b	1	710	5
101	B	31	650	j	j	1	779	3
101	B	32	950	k	k	1	616	2
101	B	33	650	h	h	1	635	4
101	B	34	1100	l	l	1	475	1
101	B	35	950	b	b	1	584	5
101	B	36	650	h	h	1	669	4
101	B	37	800	b	b	1	723	5
101	B	38	500	l	l	1	681	1
101	B	39	1100	j	j	1	739	3
101	B	40	1100	k	k	1	632	2
101	B	41	650	l	l	1	459	1
101	B	42	500	k	k	1	755	2
101	B	43	1100	b	b	1	763	5
101	B	44	500	h	h	1	816	4
101	B	45	950	l	l	1	497	1
101	B	46	800	k	k	1	555	2
101	B	47	950	h	h	1	851	4
101	B	48	800	j	j	1	601	3
101	B	49	1100	b	b	1	613	5
101	B	50	950	k	k	1	1608	2
101	C	1	800	j	j	1	2788	3
101	C	2	1100	l	l	1	651	5
101	C	3	950	h	h	1	862	2
101	C	4	500	j	j	1	758	3
101	C	5	500	k	k	1	736	4
101	C	6	950	b	b	1	636	1
101	C	7	650	j	j	1	710	3
101	C	8	950	h	h	1	555	2
101	C	9	650	k	k	1	939	4
101	C	10	1100	b	b	1	548	1
101	C	11	950	l	l	1	539	5
101	C	12	650	k	k	1	944	4
101	C	13	800	l	l	1	587	5
101	C	14	500	b	b	1	492	1
101	C	15	1100	j	k	0	1478	3
101	C	16	1100	h	h	1	968	2
101	C	17	650	b	b	1	543	1
101	C	18	500	h	h	1	886	2
101	C	19	1100	l	l	1	595	5
101	C	20	800	h	h	1	614	2
101	C	21	950	k	k	1	944	4
101	C	22	950	j	j	1	1299	3
101	C	23	800	b	b	1	598	1
101	C	24	800	k	k	1	590	4
101	C	25	650	h	h	1	574	2
101	C	26	500	l	l	1	526	5
101	C	27	800	b	b	1	633	1
101	C	28	650	h	h	1	771	2
101	C	29	500	b	b	1	531	1
101	C	30	500	k	k	1	1025	4
101	C	31	950	l	l	1	440	5
101	C	32	1100	j	j	1	401	3
101	C	33	1100	k	k	1	702	4
101	C	34	950	b	b	1	678	1
101	C	35	800	l	l	1	617	5
101	C	36	950	j	j	1	990	3
101	C	37	650	b	b	1	635	1
101	C	38	1100	k	k	1	737	4
101	C	39	500	l	l	1	577	5
101	C	40	500	h	h	1	712	2
101	C	41	950	k	k	1	829	4
101	C	42	500	j	j	1	1080	3
101	C	43	1100	h	h	1	586	2
101	C	44	800	j	j	1	757	3
101	C	45	800	k	k	1	594	4
101	C	46	1100	b	b	1	558	1
101	C	47	650	l	l	1	510	5
101	C	48	800	h	h	1	664	2
101	C	49	650	j	j	1	813	3
101	C	50	650	l	l	1	893	5
101	D	1	650	b	b	1	569	5
101	D	2	650	j	j	1	635	3
101	D	3	800	k	k	1	811	2
101	D	4	650	b	b	1	538	5
101	D	5	1100	l	l	1	687	1
101	D	6	800	h	h	1	542	4
101	D	7	800	j	j	1	811	3
101	D	8	1100	k	k	1	507	2
101	D	9	500	j	j	1	881	3
101	D	10	950	h	h	1	656	4
101	D	11	500	k	k	1	810	2
101	D	12	500	b	b	1	765	5
101	D	13	1100	h	h	1	565	4
101	D	14	650	l	l	1	606	1
101	D	15	950	j	j	1	1211	3
101	D	16	800	b	b	1	512	5
101	D	17	950	l	l	1	699	1
101	D	18	1100	h	h	1	717	4
101	D	19	1100	j	j	1	998	3
101	D	20	950	b	b	1	530	5
101	D	21	500	h	h	1	730	4
101	D	22	500	l	l	1	579	1
101	D	23	650	k	k	1	560	2
101	D	24	800	l	l	1	862	1
101	D	25	500	b	b	1	749	5
101	D	26	650	k	k	1	650	2
101	D	27	800	h	h	1	856	4
101	D	28	800	l	l	1	611	1
101	D	29	950	j	j	1	669	3
101	D	30	950	h	h	1	560	4
101	D	31	800	k	k	1	698	2
101	D	32	1100	b	b	1	733	5
101	D	33	500	k	k	1	707	2
101	D	34	650	l	l	1	499	1
101	D	35	1100	k	k	1	579	2
101	D	36	1100	j	j	1	1269	3
101	D	37	500	l	l	1	617	1
101	D	38	800	b	b	1	517	5
101	D	39	650	h	h	1	800	4
101	D	40	950	b	b	1	547	5
101	D	41	1100	l	l	1	1008	1
101	D	42	650	h	h	1	611	4
101	D	43	950	k	k	1	594	2
101	D	44	650	j	j	1	819	3
101	D	45	950	l	l	1	720	1
101	D	46	500	h	h	1	823	4
101	D	47	500	j	j	1	1008	3
101	D	48	950	k	k	1	698	2
101	D	49	1100	b	h	0	522	5
101	D	50	800	j	j	1	1053	3
102	A	1	950	k	k	1	690	4
102	A	2	800	h	h	1	805	2
102	A	3	950	b	b	1	1057	1
102	A	4	500	k	k	1	661	4
102	A	5	1100	l	l	1	517	5
102	A	6	500	h	h	1	416	2
102	A	7	650	b	b	1	785	1
102	A	8	1100	h	h	1	1045	2
102	A	9	1100	j	j	1	425	3
102	A	10	500	b	b	1	745	1
102	A	11	800	l	l	1	550	5
102	A	12	650	k	k	1	547	4
102	A	13	950	l	l	1	585	5
102	A	14	1100	b	b	1	785	1
102	A	15	650	k	k	1	720	4
102	A	16	950	h	h	1	541	2
102	A	17	650	j	j	1	750	3
102	A	18	650	l	l	1	473	5
102	A	19	650	j	j	1	1137	3
102	A	20	950	k	k	1	581	4
102	A	21	800	j	j	1	844	3
102	A	22	1100	b	b	1	609	1
102	A	23	800	k	k	1	531	4
102	A	24	950	h	h	1	755	2
102	A	25	1100	l	l	1	609	5
102	A	26	800	j	j	1	953	3
102	A	27	1100	h	h	1	693	2
102	A	28	500	j	j	1	548	3
102	A	29	500	h	h	1	674	2
102	A	30	500	l	l	1	518	5
102	A	31	1100	k	k	1	632	4
102	A	32	650	b	b	1	537	1
102	A	33	950	j	j	1	620	3
102	A	34	800	l	l	1	465	5
102	A	35	950	b	b	1	878	1
102	A	36	1100	k	k	1	573	4
102	A	37	1100	j	j	1	478	3
102	A	38	950	l	l	1	620	5
102	A	39	500	k	k	1	594	4
102	A	40	500	b	b	1	609	1
102	A	41	650	h	h	1	554	2
102	A	42	800	b	b	1	598	1
102	A	43	500	l	l	1	500	5
102	A	44	650	h	h	1	506	2
102	A	45	800	k	k	1	636	4
102	A	46	800	b	b	1	537	1
102	A	47	950	j	j	1	355	3
102	A	48	800	h	h	1	639	2
102	A	49	650	l	l	1	531	5
102	A	50	500	j	j	1	744	3
102	B	1	950	j	j	1	917	3
102	B	2	800	l	l	1	490	1
102	B	3	800	h	h	1	772	4
102	B	4	650	k	k	1	865	2
102	B	5	500	b	b	1	849	5
102	B	6	800	l	l	1	493	1
102	B	7	650	k	k	1	420	2
102	B	8	500	l	l	1	568	1
102	B	9	500	h	h	1	727	4
102	B	10	950	b	b	1	551	5
102	B	11	1100	j	j	1	960	3
102	B	12	1100	h	h	1	979	4
102	B	13	950	l	l	1	605	1
102	B	14	800	b	b	1	806	5
102	B	15	950	j	j	1	669	3
102	B	16	650	l	l	1	829	1
102	B	17	1100	h	h	1	1065	4
102	B	18	500	b	b	1	595	5
102	B	19	500	k	k	1	1308	2
102	B	20	950	h	h	1	998	4
102	B	21	500	j	j	1	701	3
102	B	22	1100	k	k	1	934	2
102	B	23	800	j	j	1	584	3
102	B	24	800	h	h	1	1107	4
102	B	25	1100	l	l	1	584	1
102	B	26	500	j	j	1	904	3
102	B	27	650	b	b	1	761	5
102	B	28	800	k	k	1	1003	2
102	B	29	650	j	j	1	603	3
102	B	30	650	b	b	1	1019	5
102	B	31	650	j	j	1	613	3
102	B	32	950	k	k	1	779	2
102	B	33	650	h	h	1	657	4
102	B	34	1100	l	l	1	443	1
102	B	35	950	b	b	1	985	5
102	B	36	650	h	h	1	558	4
102	B	37	800	b	b	1	587	5
102	B	38	500	l	l	1	600	1
102	B	39	1100	j	j	1	627	3
102	B	40	1100	k	k	1	1371	2
102	B	41	650	l	l	1	658	1
102	B	42	500	k	k	1	1121	2
102	B	43	1100	b	b	1	709	5
102	B	44	500	h	h	1	1390	4
102	B	45	950	l	l	1	575	1
102	B	46	800	k	k	1	683	2
102	B	47	950	h	h	1	1305	4
102	B	48	800	j	j	1	554	3
102	B	49	1100	b	b	1	934	5
102	B	50	950	k	k	1	581	2
102	C	1	800	j	j	1	670	3
102	C	2	1100	l	l	1	632	5
102	C	3	950	h	h	1	1019	2
102	C	4	500	j	j	1	1131	3
102	C	5	500	k	k	1	720	4
102	C	6	950	b	b	1	586	1
102	C	7	650	j	j	1	1032	3
102	C	8	950	h	h	1	1630	2
102	C	9	650	k	k	1	822	4
102	C	10	1100	b	b	1	376	1
102	C	11	950	l	l	1	758	5
102	C	12	650	k	k	1	1030	4
102	C	13	800	l	l	1	593	5
102	C	14	500	b	b	1	605	1
102	C	15	1100	j	j	1	883	3
102	C	16	1100	h	h	1	657	2
102	C	17	650	b	b	1	715	1
102	C	18	500	h	h	1	691	2
102	C	19	1100	l	l	1	606	5
102	C	20	800	h	h	1	1003	2
102	C	21	950	k	k	1	827	4
102	C	22	950	j	j	1	374	3
102	C	23	800	b	b	1	789	1
102	C	24	800	k	k	1	657	4
102	C	25	650	h	h	1	1389	2
102	C	26	500	l	l	1	462	5
102	C	27	800	b	b	1	709	1
102	C	28	650	h	h	1	509	2
102	C	29	500	b	b	1	531	1
102	C	30	500	k	k	1	1082	4
102	C	31	950	l	l	1	509	5
102	C	32	1100	j	j	1	770	3
102	C	33	1100	k	k	1	816	4
102	C	34	950	b	b	1	637	1
102	C	35	800	l	l	1	600	5
102	C	36	950	j	j	1	741	3
102	C	37	650	b	b	1	604	1
102	C	38	1100	k	k	1	970	4
102	C	39	500	l	l	1	538	5
102	C	40	500	h	h	1	1288	2
102	C	41	950	k	k	1	712	4
102	C	42	500	j	j	1	570	3
102	C	43	1100	h	h	1	536	2
102	C	44	800	j	j	1	1130	3
102	C	45	800	k	k	1	538	4
102	C	46	1100	b	b	1	500	1
102	C	47	650	l	l	1	1058	5
102	C	48	800	h	h	1	656	2
102	C	49	650	j	j	1	381	3
102	C	50	650	l	l	1	458	5
102	D	1	650	b	b	1	442	5
102	D	2	650	j	j	1	996	3
102	D	3	800	k	k	1	1466	2
102	D	4	650	b	b	1	692	5
102	D	5	1100	l	l	1	856	1
102	D	6	800	h	h	1	877	4
102	D	7	800	j	j	1	460	3
102	D	8	1100	k	k	1	1078	2
102	D	9	500	j	j	1	1220	3
102	D	10	950	h	h	1	759	4
102	D	11	500	k	k	1	505	2
102	D	12	500	b	b	1	710	5
102	D	13	1100	h	h	1	526	4
102	D	14	650	l	l	1	1123	1
102	D	15	950	j	j	1	883	3
102	D	16	800	b	b	1	1166	5
102	D	17	950	l	l	1	691	1
102	D	18	1100	h	h	1	1073	4
102	D	19	1100	j	j	1	689	3
102	D	20	950	b	b	1	574	5
102	D	21	500	h	h	1	652	4
102	D	22	500	l	l	1	665	1
102	D	23	650	k	k	1	870	2
102	D	24	800	l	l	1	760	1
102	D	25	500	b	h	0	856	5
102	D	26	650	k	k	1	828	2
102	D	27	800	h	h	1	825	4
102	D	28	800	l	l	1	778	1
102	D	29	950	j	j	1	587	3
102	D	30	950	h	h	1	670	4
102	D	31	800	k	k	1	500	2
102	D	32	1100	b	b	1	729	5
102	D	33	500	k	k	1	630	2
102	D	34	650	l	l	1	1005	1
102	D	35	1100	k	k	1	497	2
102	D	36	1100	j	j	1	470	3
102	D	37	500	l	l	1	936	1
102	D	38	800	b	b	1	694	5
102	D	39	650	h	h	1	601	4
102	D	40	950	b	b	1	572	5
102	D	41	1100	l	l	1	728	1
102	D	42	650	h	h	1	1073	4
102	D	43	950	k	k	1	731	2
102	D	44	650	j	j	1	702	3
102	D	45	950	l	l	1	586	1
102	D	46	500	h	h	1	891	4
102	D	47	500	j	j	1	592	3
102	D	48	950	k	k	1	472	2
102	D	49	1100	b	b	1	676	5
102	D	50	800	j	j	1	874	3
103	A	1	950	k	k	1	583	4
103	A	2	800	h	h	1	586	2
103	A	3	950	b	b	1	593	1
103	A	4	500	k	k	1	581	4
103	A	5	1100	l	l	1	365	5
103	A	6	500	h	h	1	623	2
103	A	7	650	b	b	1	437	1
103	A	8	1100	h	h	1	535	2
103	A	9	1100	j	j	1	525	3
103	A	10	500	b	b	1	472	1
103	A	11	800	l	l	1	373	5
103	A	12	650	k	k	1	573	4
103	A	13	950	l	l	1	461	5
103	A	14	1100	b	b	1	496	1
103	A	15	650	k	k	1	525	4
103	A	16	950	h	h	1	453	2
103	A	17	650	j	j	1	517	3
103	A	18	650	l	l	1	477	5
103	A	19	650	j	j	1	373	3
103	A	20	950	k	k	1	364	4
103	A	21	800	j	j	1	664	3
103	A	22	1100	b	b	1	485	1
103	A	23	800	k	k	1	529	4
103	A	24	950	h	j	0	481	2
103	A	25	1100	l	l	1	408	5
103	A	26	800	j	j	1	675	3
103	A	27	1100	h	h	1	527	2
103	A	28	500	j	k	0	388	3
103	A	29	500	h	h	1	631	2
103	A	30	500	l	l	1	499	5
103	A	31	1100	k	k	1	593	4
103	A	32	650	b	b	1	387	1
103	A	33	950	j	j	1	659	3
103	A	34	800	l	l	1	459	5
103	A	35	950	b	b	1	456	1
103	A	36	1100	k	k	1	583	4
103	A	37	1100	j	j	1	477	3
103	A	38	950	l	l	1	500	5
103	A	39	500	k	k	1	679	4
103	A	40	500	b	b	1	483	1
103	A	41	650	h	h	1	577	2
103	A	42	800	b	b	1	397	1
103	A	43	500	l	l	1	479	5
103	A	44	650	h	h	1	540	2
103	A	45	800	k	k	1	679	4
103	A	46	800	b	b	1	493	1
103	A	47	950	j	j	1	691	3
103	A	48	800	h	h	1	540	2
103	A	49	650	l	l	1	442	5
103	A	50	500	j	j	1	540	3
103	B	1	950	j	j	1	367	3
103	B	2	800	l	l	1	461	1
103	B	3	800	h	h	1	558	4
103	B	4	650	k	k	1	440	2
103	B	5	500	b	b	1	542	5
103	B	6	800	l	l	1	437	1
103	B	7	650	k	k	1	425	2
103	B	8	500	l	l	1	469	1
103	B	9	500	h	h	1	426	4
103	B	10	950	b	b	1	478	5
103	B	11	1100	j	j	1	375	3
103	B	12	1100	h	h	1	536	4
103	B	13	950	l	l	1	362	1
103	B	14	800	b	b	1	464	5
103	B	15	950	j	j	1	532	3
103	B	16	650	l	l	1	463	1
103	B	17	1100	h	h	1	603	4
103	B	18	500	b	b	1	448	5
103	B	19	500	k	k	1	433	2
103	B	20	950	h	h	1	576	4
103	B	21	500	j	j	1	516	3
103	B	22	1100	k	k	1	557	2
103	B	23	800	j	j	1	609	3
103	B	24	800	h	h	1	483	4
103	B	25	1100	l	l	1	481	1
103	B	26	500	j	j	1	681	3
103	B	27	650	b	b	1	429	5
103	B	28	800	k	k	1	405	2
103	B	29	650	j	j	1	511	3
103	B	30	650	b	b	1	451	5
103	B	31	650	j	j	1	652	3
103	B	32	950	k	k	1	709	2
103	B	33	650	h	h	1	528	4
103	B	34	1100	l	l	1	401	1
103	B	35	950	b	b	1	451	5
103	B	36	650	h	h	1	752	4
103	B	37	800	b	b	1	427	5
103	B	38	500	l	l	1	513	1
103	B	39	1100	j	j	1	503	3
103	B	40	1100	k	k	1	392	2
103	B	41	650	l	l	1	532	1
103	B	42	500	k	k	1	448	2
103	B	43	1100	b	b	1	461	5
103	B	44	500	h	h	1	525	4
103	B	45	950	l	l	1	412	1
103	B	46	800	k	k	1	469	2
103	B	47	950	h	h	1	555	4
103	B	48	800	j	j	1	516	3
103	B	49	1100	b	b	1	448	5
103	B	50	950	k	k	1	643	2
103	C	1	800	j	j	1	588	3
103	C	2	1100	l	l	1	377	5
103	C	3	950	h	h	1	524	2
103	C	4	500	j	j	1	529	3
103	C	5	500	k	k	1	383	4
103	C	6	950	b	b	1	397	1
103	C	7	650	j	j	1	543	3
103	C	8	950	h	h	1	521	2
103	C	9	650	k	k	1	516	4
103	C	10	1100	b	b	1	530	1
103	C	11	950	l	l	1	423	5
103	C	12	650	k	k	1	361	4
103	C	13	800	l	l	1	639	5
103	C	14	500	b	b	1	445	1
103	C	15	1100	j	j	1	457	3
103	C	16	1100	h	h	1	585	2
103	C	17	650	b	b	1	477	1
103	C	18	500	h	h	1	561	2
103	C	19	1100	l	l	1	471	5
103	C	20	800	h	h	1	540	2
103	C	21	950	k	k	1	775	4
103	C	22	950	j	j	1	600	3
103	C	23	800	b	b	1	503	1
103	C	24	800	k	k	1	595	4
103	C	25	650	h	h	1	531	2
103	C	26	500	l	l	1	464	5
103	C	27	800	b	b	1	505	1
103	C	28	650	h	h	1	518	2
103	C	29	500	b	b	1	529	1
103	C	30	500	k	k	1	558	4
103	C	31	950	l	l	1	376	5
103	C	32	1100	j	j	1	531	3
103	C	33	1100	k	k	1	512	4
103	C	34	950	b	b	1	516	1
103	C	35	800	l	l	1	448	5
103	C	36	950	j	j	1	512	3
103	C	37	650	b	b	1	489	1
103	C	38	1100	k	k	1	454	4
103	C	39	500	l	l	1	398	5
103	C	40	500	h	h	1	539	2
103	C	41	950	k	k	1	542	4
103	C	42	500	j	j	1	662	3
103	C	43	1100	h	h	1	534	2
103	C	44	800	j	j	1	489	3
103	C	45	800	k	k	1	649	4
103	C	46	1100	b	b	1	689	1
103	C	47	650	l	l	1	568	5
103	C	48	800	h	h	1	553	2
103	C	49	650	j	j	1	401	3
103	C	50	650	l	l	1	374	5
103	D	1	650	b	b	1	546	5
103	D	2	650	j	j	1	755	3
103	D	3	800	k	k	1	528	2
103	D	4	650	b	b	1	501	5
103	D	5	1100	l	l	1	559	1
103	D	6	800	h	h	1	509	4
103	D	7	800	j	j	1	443	3
103	D	8	1100	k	k	1	608	2
103	D	9	500	j	j	1	442	3
103	D	10	950	h	h	1	533	4
103	D	11	500	k	k	1	616	2
103	D	12	500	b	b	1	458	5
103	D	13	1100	h	h	1	552	4
103	D	14	650	l	l	1	553	1
103	D	15	950	j	j	1	475	3
103	D	16	800	b	b	1	410	5
103	D	17	950	l	l	1	521	1
103	D	18	1100	h	h	1	533	4
103	D	19	1100	j	j	1	632	3
103	D	20	950	b	b	1	464	5
103	D	21	500	h	h	1	496	4
103	D	22	500	l	l	1	479	1
103	D	23	650	k	k	1	523	2
103	D	24	800	l	l	1	488	1
103	D	25	500	b	b	1	501	5
103	D	26	650	k	k	1	659	2
103	D	27	800	h	h	1	440	4
103	D	28	800	l	l	1	459	1
103	D	29	950	j	j	1	501	3
103	D	30	950	h	h	1	512	4
103	D	31	800	k	k	1	604	2
103	D	32	1100	b	b	1	501	5
103	D	33	500	k	j	0	653	2
103	D	34	650	l	l	1	435	1
103	D	35	1100	k	k	1	538	2
103	D	36	1100	j	j	1	405	3
103	D	37	500	l	l	1	366	1
103	D	38	800	b	b	1	488	5
103	D	39	650	h	h	1	755	4
103	D	40	950	b	b	1	450	5
103	D	41	1100	l	l	1	507	1
103	D	42	650	h	h	1	463	4
103	D	43	950	k	k	1	522	2
103	D	44	650	j	j	1	413	3
103	D	45	950	l	l	1	563	1
103	D	46	500	h	h	1	466	4
103	D	47	500	j	j	1	589	3
103	D	48	950	k	k	1	524	2
103	D	49	1100	b	b	1	479	5
103	D	50	800	j	j	1	600	3
104	A	1	950	k	l	0	832	4
104	A	2	800	h	h	1	781	2
104	A	3	950	b	b	1	346	1
104	A	4	500	k	k	1	781	4
104	A	5	1100	l	l	1	576	5
104	A	6	500	h	h	1	664	2
104	A	7	650	b	b	1	517	1
104	A	8	1100	h	h	1	594	2
104	A	9	1100	j	j	1	668	3
104	A	10	500	b	b	1	527	1
104	A	11	800	l	l	1	375	5
104	A	12	650	k	k	1	621	4
104	A	13	950	l	l	1	524	5
104	A	14	1100	b	b	1	465	1
104	A	15	650	k	k	1	720	4
104	A	16	950	h	h	1	573	2
104	A	17	650	j	k	0	521	3
104	A	18	650	l	l	1	580	5
104	A	19	650	j	j	1	554	3
104	A	20	950	k	k	1	525	4
104	A	21	800	j	j	1	628	3
104	A	22	1100	b	b	1	569	1
104	A	23	800	k	k	1	880	4
104	A	24	950	h	h	1	877	2
104	A	25	1100	l	l	1	660	5
104	A	26	800	j	j	1	602	3
104	A	27	1100	h	h	1	563	2
104	A	28	500	j	j	1	682	3
104	A	29	500	h	h	1	563	2
104	A	30	500	l	l	1	495	5
104	A	31	1100	k	k	1	715	4
104	A	32	650	b	b	1	492	1
104	A	33	950	j	j	1	602	3
104	A	34	800	l	l	1	543	5
104	A	35	950	b	b	1	452	1
104	A	36	1100	k	k	1	699	4
104	A	37	1100	j	j	1	711	3
104	A	38	950	l	l	1	604	5
104	A	39	500	k	k	1	786	4
104	A	40	500	b	b	1	1129	1
104	A	41	650	h	h	1	402	2
104	A	42	800	b	b	1	614	1
104	A	43	500	l	l	1	471	5
104	A	44	650	h	h	1	503	2
104	A	45	800	k	l	0	522	4
104	A	46	800	b	b	1	497	1
104	A	47	950	j	j	1	466	3
104	A	48	800	h	h	1	519	2
104	A	49	650	l	l	1	425	5
104	A	50	500	j	j	1	594	3
104	B	1	950	j	j	1	453	3
104	B	2	800	l	l	1	688	1
104	B	3	800	h	h	1	1389	4
104	B	4	650	k	k	1	559	2
104	B	5	500	b	b	1	447	5
104	B	6	800	l	l	1	405	1
104	B	7	650	k	k	1	983	2
104	B	8	500	l	l	1	605	1
104	B	9	500	h	h	1	1455	4
104	B	10	950	b	b	1	471	5
104	B	11	1100	j	j	1	397	3
104	B	12	1100	h	h	1	762	4
104	B	13	950	l	l	1	432	1
104	B	14	800	b	b	1	679	5
104	B	15	950	j	j	1	712	3
104	B	16	650	l	l	1	488	1
104	B	17	1100	h	h	1	453	4
104	B	18	500	b	l	0	572	5
104	B	19	500	k	k	1	1054	2
104	B	20	950	h	h	1	638	4
104	B	21	500	j	j	1	752	3
104	B	22	1100	k	k	1	748	2
104	B	23	800	j	j	1	565	3
104	B	24	800	h	h	1	638	4
104	B	25	1100	l	l	1	499	1
104	B	26	500	j	j	1	475	3
104	B	27	650	b	b	1	514	5
104	B	28	800	k	k	1	1054	2
104	B	29	650	j	j	1	514	3
104	B	30	650	b	b	1	509	5
104	B	31	650	j	h	0	461	3
104	B	32	950	k	k	1	553	2
104	B	33	650	h	j	0	729	4
104	B	34	1100	l	l	1	347	1
104	B	35	950	b	b	1	398	5
104	B	36	650	h	h	1	590	4
104	B	37	800	b	b	1	462	5
104	B	38	500	l	l	1	554	1
104	B	39	1100	j	j	1	607	3
104	B	40	1100	k	k	1	516	2
104	B	41	650	l	l	1	450	1
104	B	42	500	k	k	1	766	2
104	B	43	1100	b	b	1	481	5
104	B	44	500	h	h	1	1012	4
104	B	45	950	l	l	1	490	1
104	B	46	800	k	k	1	526	2
104	B	47	950	h	h	1	684	4
104	B	48	800	j	j	1	664	3
104	B	49	1100	b	b	1	596	5
104	B	50	950	k	j	0	3279	2
104	C	1	800	j	j	1	672	3
104	C	2	1100	l	l	1	365	5
104	C	3	950	h	h	1	669	2
104	C	4	500	j	j	1	663	3
104	C	5	500	k	k	1	759	4
104	C	6	950	b	b	1	549	1
104	C	7	650	j	j	1	735	3
104	C	8	950	h	h	1	834	2
104	C	9	650	k	k	1	730	4
104	C	10	1100	b	b	1	629	1
104	C	11	950	l	l	1	535	5
104	C	12	650	k	k	1	719	4
104	C	13	800	l	l	1	578	5
104	C	14	500	b	b	1	624	1
104	C	15	1100	j	j	1	426	3
104	C	16	1100	h	h	1	538	2
104	C	17	650	b	b	1	557	1
104	C	18	500	h	h	1	533	2
104	C	19	1100	l	l	1	607	5
104	C	20	800	h	h	1	570	2
104	C	21	950	k	k	1	370	4
104	C	22	950	j	j	1	554	3
104	C	23	800	b	b	1	688	1
104	C	24	800	k	k	1	770	4
104	C	25	650	h	j	0	757	2
104	C	26	500	l	l	1	423	5
104	C	27	800	b	b	1	552	1
104	C	28	650	h	h	1	717	2
104	C	29	500	b	b	1	477	1
104	C	30	500	k	k	1	605	4
104	C	31	950	l	l	1	357	5
104	C	32	1100	j	j	1	815	3
104	C	33	1100	k	k	1	543	4
104	C	34	950	b	b	1	399	1
104	C	35	800	l	l	1	567	5
104	C	36	950	j	k	0	578	3
104	C	37	650	b	b	1	511	1
104	C	38	1100	k	k	1	594	4
104	C	39	500	l	l	1	538	5
104	C	40	500	h	h	1	842	2
104	C	41	950	k	k	1	498	4
104	C	42	500	j	j	1	569	3
104	C	43	1100	h	h	1	326	2
104	C	44	800	j	j	1	910	3
104	C	45	800	k	k	1	556	4
104	C	46	1100	b	b	1	543	1
104	C	47	650	l	l	1	719	5
104	C	48	800	h	h	1	644	2
104	C	49	650	j	j	1	774	3
104	C	50	650	l	l	1	518	5
104	D	1	650	b	b	1	567	5
104	D	2	650	j	j	1	1274	3
104	D	3	800	k	k	1	496	2
104	D	4	650	b	b	1	434	5
104	D	5	1100	l	l	1	618	1
104	D	6	800	h	h	1	666	4
104	D	7	800	j	j	1	890	3
104	D	8	1100	k	h	0	518	2
104	D	9	500	j	j	1	1994	3
104	D	10	950	h	h	1	810	4
104	D	11	500	k	k	1	540	2
104	D	12	500	b	b	1	623	5
104	D	13	1100	h	h	1	711	4
104	D	14	650	l	l	1	346	1
104	D	15	950	j	j	1	490	3
104	D	16	800	b	b	1	527	5
104	D	17	950	l	l	1	485	1
104	D	18	1100	h	h	1	580	4
104	D	19	1100	j	j	1	458	3
104	D	20	950	b	b	1	663	5
104	D	21	500	h	h	1	946	4
104	D	22	500	l	l	1	370	1
104	D	23	650	k	k	1	1156	2
104	D	24	800	l	l	1	519	1
104	D	25	500	b	b	1	522	5
104	D	26	650	k	k	1	939	2
104	D	27	800	h	h	1	570	4
104	D	28	800	l	l	1	517	1
104	D	29	950	j	j	1	580	3
104	D	30	950	h	h	1	460	4
104	D	31	800	k	k	1	855	2
104	D	32	1100	b	b	1	567	5
104	D	33	500	k	k	1	607	2
104	D	34	650	l	l	1	429	1
104	D	35	1100	k	k	1	938	2
104	D	36	1100	j	h	0	684	3
104	D	37	500	l	l	1	685	1
104	D	38	800	b	b	1	575	5
104	D	39	650	h	h	1	622	4
104	D	40	950	b	b	1	406	5
104	D	41	1100	l	l	1	550	1
104	D	42	650	h	h	1	782	4
104	D	43	950	k	k	1	732	2
104	D	44	650	j	j	1	1068	3
104	D	45	950	l	l	1	588	1
104	D	46	500	h	h	1	495	4
104	D	47	500	j	j	1	806	3
104	D	48	950	k	k	1	570	2
104	D	49	1100	b	b	1	820	5
104	D	50	800	j	j	1	756	3
105	A	1	950	k	k	1	523	4
105	A	2	800	h	h	1	475	2
105	A	3	950	b	b	1	565	1
105	A	4	500	k	k	1	518	4
105	A	5	1100	l	l	1	666	5
105	A	6	500	h	h	1	531	2
105	A	7	650	b	b	1	833	1
105	A	8	1100	h	h	1	435	2
105	A	9	1100	j	j	1	655	3
105	A	10	500	b	b	1	681	1
105	A	11	800	l	l	1	610	5
105	A	12	650	k	k	1	470	4
105	A	13	950	l	l	1	477	5
105	A	14	1100	b	b	1	711	1
105	A	15	650	k	k	1	478	4
105	A	16	950	h	h	1	395	2
105	A	17	650	j	j	1	501	3
105	A	18	650	l	l	1	578	5
105	A	19	650	j	j	1	527	3
105	A	20	950	k	k	1	536	4
105	A	21	800	j	j	1	646	3
105	A	22	1100	b	b	1	548	1
105	A	23	800	k	k	1	538	4
105	A	24	950	h	h	1	421	2
105	A	25	1100	l	l	1	825	5
105	A	26	800	j	j	1	500	3
105	A	27	1100	h	h	1	394	2
105	A	28	500	j	j	1	662	3
105	A	29	500	h	h	1	394	2
105	A	30	500	l	l	1	1196	5
105	A	31	1100	k	k	1	426	4
105	A	32	650	b	b	1	569	1
105	A	33	950	j	j	1	532	3
105	A	34	800	l	l	1	1047	5
105	A	35	950	b	b	1	487	1
105	A	36	1100	k	k	1	402	4
105	A	37	1100	j	j	1	742	3
105	A	38	950	l	l	1	873	5
105	A	39	500	k	k	1	469	4
105	A	40	500	b	b	1	497	1
105	A	41	650	h	h	1	351	2
105	A	42	800	b	b	1	468	1
105	A	43	500	l	l	1	1041	5
105	A	44	650	h	h	1	423	2
105	A	45	800	k	k	1	426	4
105	A	46	800	b	b	1	332	1
105	A	47	950	j	j	1	620	3
105	A	48	800	h	h	1	303	2
105	A	49	650	l	l	1	439	5
105	A	50	500	j	j	1	556	3
105	B	1	950	j	j	1	462	3
105	B	2	800	l	b	0	488	1
105	B	3	800	h	h	1	933	4
105	B	4	650	k	k	1	1023	2
105	B	5	500	b	b	1	741	5
105	B	6	800	l	l	1	534	1
105	B	7	650	k	k	1	896	2
105	B	8	500	l	l	1	478	1
105	B	9	500	h	h	1	1317	4
105	B	10	950	b	b	1	1121	5
105	B	11	1100	j	j	1	539	3
105	B	12	1100	h	h	1	1567	4
105	B	13	950	l	l	1	451	1
105	B	14	800	b	b	1	809	5
105	B	15	950	j	j	1	488	3
105	B	16	650	l	l	1	455	1
105	B	17	1100	h	h	1	887	4
105	B	18	500	b	b	1	940	5
105	B	19	500	k	k	1	711	2
105	B	20	950	h	h	1	908	4
105	B	21	500	j	j	1	402	3
105	B	22	1100	k	k	1	1159	2
105	B	23	800	j	j	1	525	3
105	B	24	800	h	h	1	1201	4
105	B	25	1100	l	l	1	399	1
105	B	26	500	j	j	1	453	3
105	B	27	650	b	b	1	855	5
105	B	28	800	k	k	1	996	2
105	B	29	650	j	j	1	477	3
105	B	30	650	b	b	1	721	5
105	B	31	650	j	j	1	439	3
105	B	32	950	k	k	1	625	2
105	B	33	650	h	h	1	788	4
105	B	34	1100	l	l	1	365	1
105	B	35	950	b	b	1	708	5
105	B	36	650	h	h	1	700	4
105	B	37	800	b	b	1	447	5
105	B	38	500	l	l	1	471	1
105	B	39	1100	j	j	1	354	3
105	B	40	1100	k	k	1	671	2
105	B	41	650	l	l	1	405	1
105	B	42	500	k	k	1	548	2
105	B	43	1100	b	b	1	417	5
105	B	44	500	h	h	1	1052	4
105	B	45	950	l	l	1	389	1
105	B	46	800	k	k	1	868	2
105	B	47	950	h	h	1	577	4
105	B	48	800	j	j	1	405	3
105	B	49	1100	b	b	1	1098	5
105	B	50	950	k	k	1	639	2
105	C	1	800	j	j	1	472	3
105	C	2	1100	l	l	1	355	5
105	C	3	950	h	h	1	595	2
105	C	4	500	j	j	1	629	3
105	C	5	500	k	k	1	544	4
105	C	6	950	b	b	1	392	1
105	C	7	650	j	j	1	443	3
105	C	8	950	h	h	1	419	2
105	C	9	650	k	k	1	480	4
105	C	10	1100	b	b	1	411	1
105	C	11	950	l	l	1	573	5
105	C	12	650	k	k	1	515	4
105	C	13	800	l	l	1	419	5
105	C	14	500	b	b	1	387	1
105	C	15	1100	j	j	1	507	3
105	C	16	1100	h	h	1	523	2
105	C	17	650	b	b	1	512	1
105	C	18	500	h	h	1	552	2
105	C	19	1100	l	l	1	518	5
105	C	20	800	h	h	1	531	2
105	C	21	950	k	k	1	587	4
105	C	22	950	j	j	1	566	3
105	C	23	800	b	b	1	365	1
105	C	24	800	k	k	1	726	4
105	C	25	650	h	h	1	512	2
105	C	26	500	l	l	1	374	5
105	C	27	800	b	b	1	405	1
105	C	28	650	h	h	1	470	2
105	C	29	500	b	b	1	378	1
105	C	30	500	k	k	1	600	4
105	C	31	950	l	l	1	390	5
105	C	32	1100	j	j	1	526	3
105	C	33	1100	k	k	1	627	4
105	C	34	950	b	b	1	381	1
105	C	35	800	l	l	1	616	5
105	C	36	950	j	j	1	562	3
105	C	37	650	b	b	1	378	1
105	C	38	1100	k	k	1	506	4
105	C	39	500	l	l	1	557	5
105	C	40	500	h	h	1	706	2
105	C	41	950	k	k	1	557	4
105	C	42	500	j	j	1	599	3
105	C	43	1100	h	h	1	594	2
105	C	44	800	j	j	1	655	3
105	C	45	800	k	k	1	514	4
105	C	46	1100	b	b	1	381	1
105	C	47	650	l	l	1	525	5
105	C	48	800	h	h	1	562	2
105	C	49	650	j	j	1	501	3
105	C	50	650	l	l	1	429	5
105	D	1	650	b	l	0	527	5
105	D	2	650	j	j	1	887	3
105	D	3	800	k	k	1	973	2
105	D	4	650	b	b	1	1002	5
105	D	5	1100	l	l	1	403	1
105	D	6	800	h	h	1	909	4
105	D	7	800	j	j	1	629	3
105	D	8	1100	k	k	1	581	2
105	D	9	500	j	j	1	1240	3
105	D	10	950	h	h	1	535	4
105	D	11	500	k	k	1	734	2
105	D	12	500	b	b	1	474	5
105	D	13	1100	h	h	1	909	4
105	D	14	650	l	l	1	440	1
105	D	15	950	j	j	1	623	3
105	D	16	800	b	b	1	541	5
105	D	17	950	l	l	1	480	1
105	D	18	1100	h	h	1	945	4
105	D	19	1100	j	j	1	612	3
105	D	20	950	b	b	1	841	5
105	D	21	500	h	h	1	569	4
105	D	22	500	l	l	1	443	1
105	D	23	650	k	k	1	844	2
105	D	24	800	l	l	1	787	1
105	D	25	500	b	b	1	772	5
105	D	26	650	k	k	1	1156	2
105	D	27	800	h	h	1	526	4
105	D	28	800	l	l	1	582	1
105	D	29	950	j	j	1	777	3
105	D	30	950	h	h	1	609	4
105	D	31	800	k	k	1	1873	2
105	D	32	1100	b	b	1	918	5
105	D	33	500	k	k	1	3020	2
105	D	34	650	l	l	1	682	1
105	D	35	1100	k	k	1	447	2
105	D	36	1100	j	j	1	511	3
105	D	37	500	l	l	1	786	1
105	D	38	800	b	b	1	647	5
105	D	39	650	h	h	1	921	4
105	D	40	950	b	b	1	577	5
105	D	41	1100	l	l	1	477	1
105	D	42	650	h	h	1	500	4
105	D	43	950	k	k	1	540	2
105	D	44	650	j	j	1	572	3
105	D	45	950	l	l	1	498	1
105	D	46	500	h	h	1	559	4
105	D	47	500	j	j	1	513	3
105	D	48	950	k	k	1	655	2
105	D	49	1100	b	b	1	540	5
105	D	50	800	j	j	1	515	3
106	A	1	950	k	k	1	506	4
106	A	2	800	h	h	1	621	2
106	A	3	950	b	b	1	448	1
106	A	4	500	k	k	1	816	4
106	A	5	1100	l	l	1	508	5
106	A	6	500	h	h	1	578	2
106	A	7	650	b	b	1	455	1
106	A	8	1100	h	h	1	402	2
106	A	9	1100	j	j	1	684	3
106	A	10	500	b	b	1	468	1
106	A	11	800	l	l	1	491	5
106	A	12	650	k	k	1	520	4
106	A	13	950	l	l	1	485	5
106	A	14	1100	b	b	1	505	1
106	A	15	650	k	k	1	594	4
106	A	16	950	h	h	1	560	2
106	A	17	650	j	j	1	501	3
106	A	18	650	l	l	1	483	5
106	A	19	650	j	k	0	472	3
106	A	20	950	k	k	1	704	4
106	A	21	800	j	j	1	600	3
106	A	22	1100	b	b	1	977	1
106	A	23	800	k	k	1	573	4
106	A	24	950	h	h	1	485	2
106	A	25	1100	l	l	1	507	5
106	A	26	800	j	j	1	658	3
106	A	27	1100	h	h	1	805	2
106	A	28	500	j	j	1	920	3
106	A	29	500	h	h	1	626	2
106	A	30	500	l	l	1	344	5
106	A	31	1100	k	k	1	544	4
106	A	32	650	b	b	1	540	1
106	A	33	950	j	j	1	640	3
106	A	34	800	l	l	1	371	5
106	A	35	950	b	b	1	532	1
106	A	36	1100	k	k	1	563	4
106	A	37	1100	j	j	1	536	3
106	A	38	950	l	l	1	536	5
106	A	39	500	k	k	1	610	4
106	A	40	500	b	b	1	578	1
106	A	41	650	h	h	1	452	2
106	A	42	800	b	b	1	466	1
106	A	43	500	l	l	1	459	5
106	A	44	650	h	h	1	943	2
106	A	45	800	k	K	1	522	4
106	A	46	800	b	b	1	562	1
106	A	47	950	j	j	1	493	3
106	A	48	800	h	h	1	567	2
106	A	49	650	l	l	1	413	5
106	A	50	500	j	j	1	483	3
106	B	1	950	j	j	1	512	3
106	B	2	800	l	l	1	536	1
106	B	3	800	h	h	1	608	4
106	B	4	650	k	k	1	490	2
106	B	5	500	b	b	1	501	5
106	B	6	800	l	l	1	480	1
106	B	7	650	k	k	1	548	2
106	B	8	500	l	l	1	482	1
106	B	9	500	h	h	1	689	4
106	B	10	950	b	b	1	517	5
106	B	11	1100	j	j	1	600	3
106	B	12	1100	h	h	1	511	4
106	B	13	950	l	l	1	541	1
106	B	14	800	b	b	1	556	5
106	B	15	950	j	j	1	666	3
106	B	16	650	l	l	1	498	1
106	B	17	1100	h	h	1	719	4
106	B	18	500	b	b	1	559	5
106	B	19	500	k	k	1	647	2
106	B	20	950	h	h	1	737	4
106	B	21	500	j	j	1	578	3
106	B	22	1100	k	k	1	463	2
106	B	23	800	j	j	1	533	3
106	B	24	800	h	h	1	919	4
106	B	25	1100	l	l	1	573	1
106	B	26	500	j	j	1	471	3
106	B	27	650	b	b	1	492	5
106	B	28	800	k	k	1	887	2
106	B	29	650	j	j	1	580	3
106	B	30	650	b	b	1	537	5
106	B	31	650	j	j	1	791	3
106	B	32	950	k	k	1	932	2
106	B	33	650	h	h	1	772	4
106	B	34	1100	l	l	1	485	1
106	B	35	950	b	b	1	529	5
106	B	36	650	h	h	1	599	4
106	B	37	800	b	b	1	844	5
106	B	38	500	l	l	1	463	1
106	B	39	1100	j	j	1	594	3
106	B	40	1100	k	k	1	615	2
106	B	41	650	l	l	1	620	1
106	B	42	500	k	k	1	665	2
106	B	43	1100	b	b	1	724	5
106	B	44	500	h	h	1	583	4
106	B	45	950	l	l	1	698	1
106	B	46	800	k	k	1	546	2
106	B	47	950	h	h	1	599	4
106	B	48	800	j	j	1	541	3
106	B	49	1100	b	b	1	542	5
106	B	50	950	k	k	1	475	2
106	C	1	800	j	k	0	606	3
106	C	2	1100	l	l	1	635	5
106	C	3	950	h	h	1	729	2
106	C	4	500	j	j	1	830	3
106	C	5	500	k	k	1	505	4
106	C	6	950	b	b	1	360	1
106	C	7	650	j	j	1	675	3
106	C	8	950	h	h	1	673	2
106	C	9	650	k	k	1	745	4
106	C	10	1100	b	b	1	426	1
106	C	11	950	l	l	1	777	5
106	C	12	650	k	k	1	667	4
106	C	13	800	l	l	1	518	5
106	C	14	500	b	b	1	461	1
106	C	15	1100	j	k	0	1233	3
106	C	16	1100	h	h	1	658	2
106	C	17	650	b	b	1	448	1
106	C	18	500	h	h	1	677	2
106	C	19	1100	l	l	1	688	5
106	C	20	800	h	h	1	576	2
106	C	21	950	k	k	1	738	4
106	C	22	950	j	j	1	685	3
106	C	23	800	b	h	0	442	1
106	C	24	800	k	k	1	610	4
106	C	25	650	h	h	1	565	2
106	C	26	500	l	l	1	682	5
106	C	27	800	b	b	1	426	1
106	C	28	650	h	h	1	813	2
106	C	29	500	b	b	1	450	1
106	C	30	500	k	k	1	616	4
106	C	31	950	l	l	1	762	5
106	C	32	1100	j	j	1	376	3
106	C	33	1100	k	k	1	632	4
106	C	34	950	b	b	1	445	1
106	C	35	800	l	l	1	781	5
106	C	36	950	j	k	0	722	3
106	C	37	650	b	b	1	565	1
106	C	38	1100	k	k	1	773	4
106	C	39	500	l	l	1	901	5
106	C	40	500	h	h	1	555	2
106	C	41	950	k	k	1	624	4
106	C	42	500	j	j	1	504	3
106	C	43	1100	h	h	1	800	2
106	C	44	800	j	j	1	517	3
106	C	45	800	k	k	1	595	4
106	C	46	1100	b	b	1	524	1
106	C	47	650	l	l	1	557	5
106	C	48	800	h	h	1	595	2
106	C	49	650	j	j	1	587	3
106	C	50	650	l	l	1	837	5
106	D	1	650	b	b	1	509	5
106	D	2	650	j	j	1	610	3
106	D	3	800	k	k	1	502	2
106	D	4	650	b	b	1	427	5
106	D	5	1100	l	l	1	475	1
106	D	6	800	h	h	1	465	4
106	D	7	800	j	j	1	448	3
106	D	8	1100	k	k	1	533	2
106	D	9	500	j	j	1	855	3
106	D	10	950	h	h	1	563	4
106	D	11	500	k	k	1	707	2
106	D	12	500	b	b	1	507	5
106	D	13	1100	h	h	1	597	4
106	D	14	650	l	l	1	515	1
106	D	15	950	j	j	1	633	3
106	D	16	800	b	b	1	392	5
106	D	17	950	l	l	1	601	1
106	D	18	1100	h	h	1	669	4
106	D	19	1100	j	j	1	465	3
106	D	20	950	b	b	1	549	5
106	D	21	500	h	h	1	584	4
106	D	22	500	l	l	1	648	1
106	D	23	650	k	k	1	595	2
106	D	24	800	l	l	1	730	1
106	D	25	500	b	b	1	448	5
106	D	26	650	k	k	1	411	2
106	D	27	800	h	h	1	437	4
106	D	28	800	l	l	1	570	1
106	D	29	950	j	j	1	839	3
106	D	30	950	h	h	1	605	4
106	D	31	800	k	k	1	611	2
106	D	32	1100	b	b	1	451	5
106	D	33	500	k	k	1	555	2
106	D	34	650	l	l	1	504	1
106	D	35	1100	k	k	1	507	2
106	D	36	1100	j	k	0	546	3
106	D	37	500	l	l	1	627	1
106	D	38	800	b	b	1	557	5
106	D	39	650	h	h	1	613	4
106	D	40	950	b	b	1	443	5
106	D	41	1100	l	l	1	557	1
106	D	42	650	h	h	1	512	4
106	D	43	950	k	k	1	645	2
106	D	44	650	j	j	1	735	3
106	D	45	950	l	l	1	592	1
106	D	46	500	h	h	1	509	4
106	D	47	500	j	j	1	658	3
106	D	48	950	k	k	1	485	2
106	D	49	1100	b	b	1	618	5
106	D	50	800	j	j	1	1337	3
107	A	1	950	k	k	1	669	4
107	A	2	800	h	h	1	506	2
107	A	3	950	b	b	1	455	1
107	A	4	500	k	k	1	642	4
107	A	5	1100	l	l	1	511	5
107	A	6	500	h	h	1	544	2
107	A	7	650	b	b	1	479	1
107	A	8	1100	h	h	1	432	2
107	A	9	1100	j	j	1	688	3
107	A	10	500	b	b	1	466	1
107	A	11	800	l	l	1	472	5
107	A	12	650	k	k	1	493	4
107	A	13	950	l	l	1	487	5
107	A	14	1100	b	b	1	610	1
107	A	15	650	k	k	1	506	4
107	A	16	950	h	h	1	405	2
107	A	17	650	j	j	1	410	3
107	A	18	650	l	l	1	605	5
107	A	19	650	j	j	1	578	3
107	A	20	950	k	k	1	557	4
107	A	21	800	j	j	1	631	3
107	A	22	1100	b	b	1	580	1
107	A	23	800	k	k	1	506	4
107	A	24	950	h	h	1	517	2
107	A	25	1100	l	l	1	466	5
107	A	26	800	j	j	1	509	3
107	A	27	1100	h	h	1	458	2
107	A	28	500	j	j	1	594	3
107	A	29	500	h	h	1	501	2
107	A	30	500	l	l	1	503	5
107	A	31	1100	k	k	1	496	4
107	A	32	650	b	b	1	668	1
107	A	33	950	j	j	1	624	3
107	A	34	800	l	l	1	378	5
107	A	35	950	b	b	1	537	1
107	A	36	1100	k	k	1	480	4
107	A	37	1100	j	j	1	554	3
107	A	38	950	l	l	1	458	5
107	A	39	500	k	k	1	607	4
107	A	40	500	b	b	1	481	1
107	A	41	650	h	h	1	385	2
107	A	42	800	b	b	1	478	1
107	A	43	500	l	l	1	528	5
107	A	44	650	h	h	1	516	2
107	A	45	800	k	k	1	426	4
107	A	46	800	b	b	1	729	1
107	A	47	950	j	j	1	618	3
107	A	48	800	h	h	1	362	2
107	A	49	650	l	l	1	426	5
107	A	50	500	j	j	1	543	3
107	B	1	950	j	j	1	402	3
107	B	2	800	l	l	1	477	1
107	B	3	800	h	h	1	478	4
107	B	4	650	k	k	1	618	2
107	B	5	500	b	b	1	668	5
107	B	6	800	l	l	1	712	1
107	B	7	650	k	k	1	565	2
107	B	8	500	l	l	1	635	1
107	B	9	500	h	h	1	634	4
107	B	10	950	b	b	1	682	5
107	B	11	1100	j	j	1	424	3
107	B	12	1100	h	h	1	503	4
107	B	13	950	l	l	1	464	1
107	B	14	800	b	b	1	637	5
107	B	15	950	j	j	1	653	3
107	B	16	650	l	l	1	645	1
107	B	17	1100	h	h	1	549	4
107	B	18	500	b	b	1	618	5
107	B	19	500	k	k	1	554	2
107	B	20	950	h	h	1	558	4
107	B	21	500	j	j	1	562	3
107	B	22	1100	k	k	1	679	2
107	B	23	800	j	j	1	506	3
107	B	24	800	h	h	1	601	4
107	B	25	1100	l	k	0	445	1
107	B	26	500	j	j	1	634	3
107	B	27	650	b	b	1	441	5
107	B	28	800	k	k	1	473	2
107	B	29	650	j	j	1	389	3
107	B	30	650	b	b	1	577	5
107	B	31	650	j	j	1	370	3
107	B	32	950	k	k	1	558	2
107	B	33	650	h	h	1	428	4
107	B	34	1100	l	l	1	562	1
107	B	35	950	b	b	1	609	5
107	B	36	650	h	h	1	505	4
107	B	37	800	b	b	1	1105	5
107	B	38	500	l	l	1	540	1
107	B	39	1100	j	j	1	596	3
107	B	40	1100	k	k	1	572	2
107	B	41	650	l	l	1	564	1
107	B	42	500	k	k	1	505	2
107	B	43	1100	b	b	1	625	5
107	B	44	500	h	h	1	668	4
107	B	45	950	l	l	1	492	1
107	B	46	800	k	k	1	505	2
107	B	47	950	h	h	1	558	4
107	B	48	800	j	k	0	594	3
107	B	49	1100	b	b	1	540	5
107	B	50	950	k	k	1	529	2
107	C	1	800	j	j	1	677	3
107	C	2	1100	l	l	1	491	5
107	C	3	950	h	h	1	451	2
107	C	4	500	j	j	1	392	3
107	C	5	500	k	k	1	568	4
107	C	6	950	b	b	1	533	1
107	C	7	650	j	j	1	643	3
107	C	8	950	h	h	1	499	2
107	C	9	650	k	k	1	603	4
107	C	10	1100	b	b	1	549	1
107	C	11	950	l	l	1	411	5
107	C	12	650	k	k	1	515	4
107	C	13	800	l	l	1	466	5
107	C	14	500	b	b	1	773	1
107	C	15	1100	j	j	1	563	3
107	C	16	1100	h	h	1	496	2
107	C	17	650	b	b	1	552	1
107	C	18	500	h	h	1	447	2
107	C	19	1100	l	l	1	471	5
107	C	20	800	h	h	1	498	2
107	C	21	950	k	k	1	432	4
107	C	22	950	j	j	1	507	3
107	C	23	800	b	b	1	451	1
107	C	24	800	k	k	1	480	4
107	C	25	650	h	h	1	474	2
107	C	26	500	l	l	1	421	5
107	C	27	800	b	b	1	470	1
107	C	28	650	h	h	1	506	2
107	C	29	500	b	b	1	554	1
107	C	30	500	k	k	1	525	4
107	C	31	950	l	l	1	407	5
107	C	32	1100	j	j	1	591	3
107	C	33	1100	k	k	1	349	4
107	C	34	950	b	b	1	605	1
107	C	35	800	l	l	1	434	5
107	C	36	950	j	j	1	493	3
107	C	37	650	b	b	1	791	1
107	C	38	1100	k	k	1	439	4
107	C	39	500	l	l	1	434	5
107	C	40	500	h	h	1	461	2
107	C	41	950	k	k	1	570	4
107	C	42	500	j	j	1	829	3
107	C	43	1100	h	h	1	562	2
107	C	44	800	j	j	1	607	3
107	C	45	800	k	k	1	562	4
107	C	46	1100	b	b	1	445	1
107	C	47	650	l	l	1	355	5
107	C	48	800	h	h	1	407	2
107	C	49	650	j	j	1	541	3
107	C	50	650	l	l	1	498	5
107	D	1	650	b	b	1	666	5
107	D	2	650	j	j	1	871	3
107	D	3	800	k	k	1	670	2
107	D	4	650	b	b	1	597	5
107	D	5	1100	l	l	1	384	1
107	D	6	800	h	h	1	682	4
107	D	7	800	j	j	1	578	3
107	D	8	1100	k	k	1	554	2
107	D	9	500	j	j	1	693	3
107	D	10	950	h	h	1	463	4
107	D	11	500	k	k	1	535	2
107	D	12	500	b	b	1	543	5
107	D	13	1100	h	h	1	415	4
107	D	14	650	l	l	1	557	1
107	D	15	950	j	j	1	666	3
107	D	16	800	b	b	1	642	5
107	D	17	950	l	l	1	525	1
107	D	18	1100	h	h	1	490	4
107	D	19	1100	j	j	1	404	3
107	D	20	950	b	b	1	661	5
107	D	21	500	h	b	0	638	4
107	D	22	500	l	l	1	429	1
107	D	23	650	k	k	1	538	2
107	D	24	800	l	l	1	496	1
107	D	25	500	b	b	1	653	5
107	D	26	650	k	k	1	538	2
107	D	27	800	h	h	1	402	4
107	D	28	800	l	l	1	509	1
107	D	29	950	j	j	1	606	3
107	D	30	950	h	h	1	560	4
107	D	31	800	k	k	1	400	2
107	D	32	1100	b	b	1	493	5
107	D	33	500	k	k	1	498	2
107	D	34	650	l	l	1	522	1
107	D	35	1100	k	k	1	597	2
107	D	36	1100	j	j	1	644	3
107	D	37	500	l	l	1	410	1
107	D	38	800	b	b	1	504	5
107	D	39	650	h	h	1	520	4
107	D	40	950	b	h	0	607	5
107	D	41	1100	l	l	1	481	1
107	D	42	650	h	h	1	376	4
107	D	43	950	k	k	1	413	2
107	D	44	650	j	j	1	670	3
107	D	45	950	l	l	1	404	1
107	D	46	500	h	h	1	460	4
107	D	47	500	j	j	1	500	3
107	D	48	950	k	k	1	532	2
107	D	49	1100	b	b	1	511	5
107	D	50	800	j	j	1	396	3
108	A	1	950	k	k	1	592	4
108	A	2	800	h	h	1	486	2
108	A	3	950	b	b	1	362	1
108	A	4	500	k	k	1	681	4
108	A	5	1100	l	l	1	505	5
108	A	6	500	h	h	1	441	2
108	A	7	650	b	b	1	501	1
108	A	8	1100	h	h	1	422	2
108	A	9	1100	j	j	1	508	3
108	A	10	500	b	b	1	479	1
108	A	11	800	l	l	1	476	5
108	A	12	650	k	j	0	454	4
108	A	13	950	l	l	1	472	5
108	A	14	1100	b	h	0	369	1
108	A	15	650	k	k	1	526	4
108	A	16	950	h	h	1	406	2
108	A	17	650	j	j	1	406	3
108	A	18	650	l	l	1	475	5
108	A	19	650	j	j	1	446	3
108	A	20	950	k	k	1	614	4
108	A	21	800	j	h	0	577	3
108	A	22	1100	b	b	1	533	1
108	A	23	800	k	k	1	488	4
108	A	24	950	h	h	1	528	2
108	A	25	1100	l	l	1	449	5
108	A	26	800	j	j	1	606	3
108	A	27	1100	h	h	1	440	2
108	A	28	500	j	j	1	601	3
108	A	29	500	h	h	1	472	2
108	A	30	500	l	l	1	403	5
108	A	31	1100	k	k	1	733	4
108	A	32	650	b	b	1	349	1
108	A	33	950	j	j	1	587	3
108	A	34	800	l	l	1	300	5
108	A	35	950	b	b	1	506	1
108	A	36	1100	k	k	1	864	4
108	A	37	1100	j	j	1	481	3
108	A	38	950	l	l	1	484	5
108	A	39	500	k	k	1	581	4
108	A	40	500	b	b	1	608	1
108	A	41	650	h	h	1	469	2
108	A	42	800	b	b	1	681	1
108	A	43	500	l	l	1	358	5
108	A	44	650	h	h	1	421	2
108	A	45	800	k	k	1	336	4
108	A	46	800	b	b	1	455	1
108	A	47	950	j	j	1	473	3
108	A	48	800	h	h	1	525	2
108	A	49	650	l	l	1	332	5
108	A	50	500	j	j	1	521	3
108	B	1	950	j	j	1	422	3
108	B	2	800	l	l	1	518	1
108	B	3	800	h	h	1	546	4
108	B	4	650	k	k	1	538	2
108	B	5	500	b	b	1	495	5
108	B	6	800	l	l	1	387	1
108	B	7	650	k	k	1	538	2
108	B	8	500	l	l	1	502	1
108	B	9	500	h	h	1	527	4
108	B	10	950	b	b	1	391	5
108	B	11	1100	j	j	1	537	3
108	B	12	1100	h	h	1	687	4
108	B	13	950	l	l	1	434	1
108	B	14	800	b	b	1	423	5
108	B	15	950	j	j	1	486	3
108	B	16	650	l	l	1	384	1
108	B	17	1100	h	h	1	597	4
108	B	18	500	b	b	1	511	5
108	B	19	500	k	j	0	631	2
108	B	20	950	h	h	1	557	4
108	B	21	500	j	j	1	443	3
108	B	22	1100	k	k	1	650	2
108	B	23	800	j	h	0	432	3
108	B	24	800	h	h	1	575	4
108	B	25	1100	l	l	1	477	1
108	B	26	500	j	j	1	483	3
108	B	27	650	b	b	1	327	5
108	B	28	800	k	k	1	639	2
108	B	29	650	j	j	1	411	3
108	B	30	650	b	b	1	1010	5
108	B	31	650	j	j	1	536	3
108	B	32	950	k	k	1	456	2
108	B	33	650	h	h	1	463	4
108	B	34	1100	l	l	1	477	1
108	B	35	950	b	b	1	474	5
108	B	36	650	h	h	1	505	4
108	B	37	800	b	b	1	545	5
108	B	38	500	l	l	1	347	1
108	B	39	1100	j	j	1	453	3
108	B	40	1100	k	k	1	633	2
108	B	41	650	l	l	1	499	1
108	B	42	500	k	k	1	305	2
108	B	43	1100	b	b	1	460	5
108	B	44	500	h	h	1	615	4
108	B	45	950	l	l	1	385	1
108	B	46	800	k	j	0	383	2
108	B	47	950	h	h	1	551	4
108	B	48	800	j	j	1	512	3
108	B	49	1100	b	b	1	596	5
108	B	50	950	k	k	1	559	2
108	C	1	800	j	j	1	862	3
108	C	2	1100	l	l	1	429	5
108	C	3	950	h	h	1	473	2
108	C	4	500	j	j	1	473	3
108	C	5	500	k	b	0	481	4
108	C	6	950	b	b	1	430	1
108	C	7	650	j	j	1	433	3
108	C	8	950	h	h	1	523	2
108	C	9	650	k	k	1	286	4
108	C	10	1100	b	b	1	420	1
108	C	11	950	l	l	1	421	5
108	C	12	650	k	k	1	435	4
108	C	13	800	l	l	1	475	5
108	C	14	500	b	b	1	505	1
108	C	15	1100	j	j	1	472	3
108	C	16	1100	h	h	1	500	2
108	C	17	650	b	b	1	537	1
108	C	18	500	h	h	1	539	2
108	C	19	1100	l	l	1	477	5
108	C	20	800	h	j	0	395	2
108	C	21	950	k	k	1	360	4
108	C	22	950	j	j	1	437	3
108	C	23	800	b	b	1	325	1
108	C	24	800	k	k	1	480	4
108	C	25	650	h	h	1	576	2
108	C	26	500	l	l	1	472	5
108	C	27	800	b	b	1	371	1
108	C	28	650	h	h	1	670	2
108	C	29	500	b	b	1	360	1
108	C	30	500	k	k	1	480	4
108	C	31	950	l	l	1	614	5
108	C	32	1100	j	j	1	469	3
108	C	33	1100	k	k	1	515	4
108	C	34	950	b	b	1	480	1
108	C	35	800	l	l	1	486	5
108	C	36	950	j	h	0	382	3
108	C	37	650	b	b	1	427	1
108	C	38	1100	k	k	1	470	4
108	C	39	500	l	l	1	441	5
108	C	40	500	h	h	1	582	2
108	C	41	950	k	h	0	544	4
108	C	42	500	j	j	1	486	3
108	C	43	1100	h	h	1	643	2
108	C	44	800	j	j	1	523	3
108	C	45	800	k	k	1	494	4
108	C	46	1100	b	b	1	534	1
108	C	47	650	l	l	1	347	5
108	C	48	800	h	h	1	475	2
108	C	49	650	j	b	0	558	3
108	C	50	650	l	l	1	462	5
108	D	1	650	b	b	1	433	5
108	D	2	650	j	j	1	798	3
108	D	3	800	k	k	1	627	2
108	D	4	650	b	b	1	581	5
108	D	5	1100	l	l	1	440	1
108	D	6	800	h	h	1	467	4
108	D	7	800	j	j	1	420	3
108	D	8	1100	k	k	1	414	2
108	D	9	500	j	j	1	479	3
108	D	10	950	h	h	1	429	4
108	D	11	500	k	h	0	422	2
108	D	12	500	b	h	0	547	5
108	D	13	1100	h	h	1	461	4
108	D	14	650	l	l	1	355	1
108	D	15	950	j	j	1	572	3
108	D	16	800	b	b	1	501	5
108	D	17	950	l	l	1	515	1
108	D	18	1100	h	h	1	456	4
108	D	19	1100	j	j	1	508	3
108	D	20	950	b	b	1	629	5
108	D	21	500	h	k	0	510	4
108	D	22	500	l	l	1	408	1
108	D	23	650	k	k	1	685	2
108	D	24	800	l	l	1	479	1
108	D	25	500	b	b	1	480	5
108	D	26	650	j	j	1	459	2
108	D	27	800	h	h	1	539	4
108	D	28	800	l	l	1	405	1
108	D	29	950	j	j	1	438	3
108	D	30	950	h	h	1	669	4
108	D	31	800	k	k	1	477	2
108	D	32	1100	b	b	1	510	5
108	D	33	500	k	k	1	539	2
108	D	34	650	l	l	1	637	1
108	D	35	1100	k	k	1	654	2
108	D	36	1100	j	b	0	422	3
108	D	37	500	l	l	1	405	1
108	D	38	800	b	j	0	424	5
108	D	39	650	h	h	1	459	4
108	D	40	950	b	b	1	518	5
108	D	41	1100	l	l	1	411	1
108	D	42	650	h	h	1	468	4
108	D	43	950	k	k	1	481	2
108	D	44	650	j	j	1	505	3
108	D	45	950	l	l	1	344	1
108	D	46	500	h	h	1	438	4
108	D	47	500	j	j	1	516	3
108	D	48	950	k	k	1	577	2
108	D	49	1100	b	b	1	502	5
108	D	50	800	j	j	1	535	3
109	A	1	950	k	k	1	343	4
109	A	2	800	h	h	1	540	2
109	A	3	950	b	b	1	427	1
109	A	4	500	k	k	1	516	4
109	A	5	1100	l	l	1	511	5
109	A	6	500	h	h	1	394	2
109	A	7	650	b	b	1	486	1
109	A	8	1100	h	h	1	662	2
109	A	9	1100	j	j	1	506	3
109	A	10	500	b	b	1	499	1
109	A	11	800	l	h	0	521	5
109	A	12	650	k	k	1	497	4
109	A	13	950	l	l	1	799	5
109	A	14	1100	b	b	1	1014	1
109	A	15	650	k	k	1	670	4
109	A	16	950	h	h	1	489	2
109	A	17	650	j	j	1	391	3
109	A	18	650	l	l	1	537	5
109	A	19	650	j	b	0	985	3
109	A	20	950	k	k	1	377	4
109	A	21	800	j	j	1	527	3
109	A	22	1100	b	b	1	427	1
109	A	23	800	k	k	1	412	4
109	A	24	950	h	h	1	369	2
109	A	25	1100	l	l	1	543	5
109	A	26	800	j	j	1	385	3
109	A	27	1100	h	h	1	452	2
109	A	28	500	j	j	1	449	3
109	A	29	500	h	h	1	639	2
109	A	30	500	l	l	1	495	5
109	A	31	1100	k	k	1	614	4
109	A	32	650	b	b	1	1273	1
109	A	33	950	j	h	0	322	3
109	A	34	800	l	l	1	465	5
109	A	35	950	b	b	1	515	1
109	A	36	1100	k	k	1	455	4
109	A	37	1100	j	j	1	548	3
109	A	38	950	l	l	1	689	5
109	A	39	500	k	k	1	665	4
109	A	40	500	b	b	1	489	1
109	A	41	650	h	h	1	460	2
109	A	42	800	b	b	1	614	1
109	A	43	500	l	l	1	545	5
109	A	44	650	h	h	1	465	2
109	A	45	800	k	k	1	668	4
109	A	46	800	b	b	1	552	1
109	A	47	950	j	j	1	614	3
109	A	48	800	h	h	1	489	2
109	A	49	650	l	l	1	534	5
109	A	50	500	j	h	0	758	3
109	B	1	950	j	j	1	999	3
109	B	2	800	l	l	1	460	1
109	B	3	800	h	h	1	616	4
109	B	4	650	k	k	1	464	2
109	B	5	500	b	b	1	656	5
109	B	6	800	l	l	1	380	1
109	B	7	650	k	k	1	496	2
109	B	8	500	l	l	1	428	1
109	B	9	500	h	h	1	462	4
109	B	10	950	b	b	1	592	5
109	B	11	1100	j	j	1	585	3
109	B	12	1100	h	h	1	550	4
109	B	13	950	l	l	1	425	1
109	B	14	800	b	b	1	566	5
109	B	15	950	j	j	1	625	3
109	B	16	650	l	b	0	420	1
109	B	17	1100	h	h	1	569	4
109	B	18	500	b	b	1	488	5
109	B	19	500	k	k	1	590	2
109	B	20	950	h	h	1	457	4
109	B	21	500	j	j	1	417	3
109	B	22	1100	k	k	1	355	2
109	B	23	800	j	j	1	318	3
109	B	24	800	h	h	1	545	4
109	B	25	1100	l	l	1	391	1
109	B	26	500	j	j	1	791	3
109	B	27	650	b	b	1	571	5
109	B	28	800	k	k	1	755	2
109	B	29	650	j	j	1	372	3
109	B	30	650	b	b	1	558	5
109	B	31	650	j	j	1	535	3
109	B	32	950	k	k	1	403	2
109	B	33	650	h	h	1	565	4
109	B	34	1100	l	l	1	503	1
109	B	35	950	b	b	1	555	5
109	B	36	650	h	h	1	600	4
109	B	37	800	b	b	1	505	5
109	B	38	500	l	l	1	407	1
109	B	39	1100	j	j	1	417	3
109	B	40	1100	k	k	1	473	2
109	B	41	650	l	l	1	588	1
109	B	42	500	k	k	1	566	2
109	B	43	1100	b	b	1	665	5
109	B	44	500	h	h	1	541	4
109	B	45	950	l	l	1	542	1
109	B	46	800	k	k	1	496	2
109	B	47	950	h	h	1	435	4
109	B	48	800	j	j	1	513	3
109	B	49	1100	b	b	1	549	5
109	B	50	950	k	k	1	531	2
109	C	1	800	j	j	1	838	3
109	C	2	1100	l	l	1	483	5
109	C	3	950	h	h	1	646	2
109	C	4	500	j	j	1	771	3
109	C	5	500	k	k	1	584	4
109	C	6	950	b	b	1	640	1
109	C	7	650	j	j	1	373	3
109	C	8	950	h	h	1	469	2
109	C	9	650	k	k	1	453	4
109	C	10	1100	b	b	1	466	1
109	C	11	950	l	l	1	602	5
109	C	12	650	k	k	1	535	4
109	C	13	800	l	l	1	453	5
109	C	14	500	b	b	1	634	1
109	C	15	1100	j	k	0	834	3
109	C	16	1100	h	h	1	501	2
109	C	17	650	b	b	1	498	1
109	C	18	500	h	h	1	472	2
109	C	19	1100	l	l	1	530	5
109	C	20	800	h	h	1	493	2
109	C	21	950	k	k	1	629	4
109	C	22	950	j	j	1	1002	3
109	C	23	800	b	b	1	536	1
109	C	24	800	k	k	1	530	4
109	C	25	650	h	h	1	589	2
109	C	26	500	l	l	1	490	5
109	C	27	800	b	b	1	669	1
109	C	28	650	h	h	1	408	2
109	C	29	500	b	b	1	453	1
109	C	30	500	k	k	1	658	4
109	C	31	950	l	l	1	666	5
109	C	32	1100	j	j	1	1056	3
109	C	33	1100	k	k	1	552	4
109	C	34	950	b	b	1	616	1
109	C	35	800	l	l	1	525	5
109	C	36	950	j	j	1	837	3
109	C	37	650	b	b	1	668	1
109	C	38	1100	k	k	1	669	4
109	C	39	500	l	l	1	693	5
109	C	40	500	h	h	1	624	2
109	C	41	950	k	k	1	627	4
109	C	42	500	j	j	1	771	3
109	C	43	1100	h	h	1	832	2
109	C	44	800	j	j	1	1349	3
109	C	45	800	k	k	1	483	4
109	C	46	1100	b	b	1	626	1
109	C	47	650	l	l	1	501	5
109	C	48	800	h	h	1	578	2
109	C	49	650	j	j	1	807	3
109	C	50	650	l	l	1	496	5
109	D	1	650	b	b	1	771	5
109	D	2	650	j	j	1	674	3
109	D	3	800	k	k	1	600	2
109	D	4	650	b	b	1	563	5
109	D	5	1100	l	l	1	670	1
109	D	6	800	h	h	1	805	4
109	D	7	800	j	j	1	711	3
109	D	8	1100	k	k	1	605	2
109	D	9	500	j	j	1	732	3
109	D	10	950	h	h	1	541	4
109	D	11	500	k	k	1	541	2
109	D	12	500	b	b	1	573	5
109	D	13	1100	h	h	1	693	4
109	D	14	650	l	l	1	704	1
109	D	15	950	j	j	1	810	3
109	D	16	800	b	b	1	611	5
109	D	17	950	l	l	1	549	1
109	D	18	1100	h	j	0	640	4
109	D	19	1100	j	j	1	546	3
109	D	20	950	b	b	1	707	5
109	D	21	500	h	h	1	560	4
109	D	22	500	l	l	1	621	1
109	D	23	650	k	k	1	571	2
109	D	24	800	l	l	1	602	1
109	D	25	500	b	b	1	581	5
109	D	26	650	k	k	1	550	2
109	D	27	800	h	h	1	488	4
109	D	28	800	l	l	1	530	1
109	D	29	950	j	j	1	421	3
109	D	30	950	h	h	1	589	4
109	D	31	800	k	k	1	611	2
109	D	32	1100	b	b	1	557	5
109	D	33	500	k	k	1	550	2
109	D	34	650	l	l	1	472	1
109	D	35	1100	k	k	1	767	2
109	D	36	1100	j	h	0	647	3
109	D	37	500	l	l	1	621	1
109	D	38	800	b	b	1	565	5
109	D	39	650	h	h	1	704	4
109	D	40	950	b	b	1	602	5
109	D	41	1100	l	l	1	552	1
109	D	42	650	h	h	1	669	4
109	D	43	950	k	k	1	618	2
109	D	44	650	j	j	1	1129	3
109	D	45	950	l	l	1	616	1
109	D	46	500	h	h	1	797	4
109	D	47	500	j	j	1	569	3
109	D	48	950	k	k	1	645	2
109	D	49	1100	b	b	1	520	5
109	D	50	800	j	j	1	633	3
110	A	1	950	k	j	0	465	4
110	A	2	800	h	k	0	470	2
110	A	3	950	b	b	1	346	1
110	A	4	500	k	k	1	480	4
110	A	5	1100	l	l	1	447	5
110	A	6	500	h	h	1	475	2
110	A	7	650	b	b	1	514	1
110	A	8	1100	h	h	1	371	2
110	A	9	1100	j	j	1	383	3
110	A	10	500	b	b	1	540	1
110	A	11	800	l	l	1	434	5
110	A	12	650	k	k	1	430	4
110	A	13	950	l	l	1	454	5
110	A	14	1100	b	b	1	505	1
110	A	15	650	k	k	1	459	4
110	A	16	950	h	h	1	363	2
110	A	17	650	j	h	0	574	3
110	A	18	650	l	l	1	473	5
110	A	19	650	j	j	1	521	3
110	A	20	950	k	l	0	467	4
110	A	21	800	j	j	1	651	3
110	A	22	1100	b	b	1	492	1
110	A	23	800	k	k	1	318	4
110	A	24	950	h	h	1	475	2
110	A	25	1100	l	l	1	606	5
110	A	26	800	j	j	1	510	3
110	A	27	1100	h	l	0	453	2
110	A	28	500	j	j	1	609	3
110	A	29	500	h	h	1	327	2
110	A	30	500	l	l	1	411	5
110	A	31	1100	k	k	1	527	4
110	A	32	650	b	b	1	476	1
110	A	33	950	j	j	1	462	3
110	A	34	800	l	l	1	483	5
110	A	35	950	b	b	1	515	1
110	A	36	1100	k	l	0	397	4
110	A	37	1100	j	j	1	355	3
110	A	38	950	l	l	1	441	5
110	A	39	500	k	k	1	522	4
110	A	40	500	b	b	1	504	1
110	A	41	650	h	j	0	463	2
110	A	42	800	b	b	1	494	1
110	A	43	500	l	j	0	418	5
110	A	44	650	h	h	1	418	2
110	A	45	800	k	k	1	493	4
110	A	46	800	b	b	1	507	1
110	A	47	950	j	j	1	609	3
110	A	48	800	h	h	1	455	2
110	A	49	650	l	l	1	515	5
110	A	50	500	j	j	1	518	3
110	B	1	950	j	j	1	462	3
110	B	2	800	l	l	1	409	1
110	B	3	800	h	h	1	644	4
110	B	4	650	k	k	1	559	2
110	B	5	500	b	b	1	524	5
110	B	6	800	l	l	1	409	1
110	B	7	650	k	k	1	495	2
110	B	8	500	l	l	1	398	1
110	B	9	500	h	h	1	487	4
110	B	10	950	b	k	0	487	5
110	B	11	1100	j	j	1	422	3
110	B	12	1100	h	h	1	492	4
110	B	13	950	l	l	1	419	1
110	B	14	800	b	b	1	455	5
110	B	15	950	j	j	1	382	3
110	B	16	650	l	l	1	899	1
110	B	17	1100	h	h	1	412	4
110	B	18	500	b	b	1	564	5
110	B	19	500	k	k	1	494	2
110	B	20	950	h	h	1	362	4
110	B	21	500	j	j	1	579	3
110	B	22	1100	k	l	0	372	2
110	B	23	800	j	j	1	379	3
110	B	24	800	h	h	1	591	4
110	B	25	1100	l	l	1	448	1
110	B	26	500	j	h	0	480	3
110	B	27	650	b	b	1	460	5
110	B	28	800	k	k	1	488	2
110	B	29	650	j	j	1	475	3
110	B	30	650	b	b	1	478	5
110	B	31	650	j	j	1	525	3
110	B	32	950	k	k	1	553	2
110	B	33	650	h	h	1	392	4
110	B	34	1100	l	l	1	445	1
110	B	35	950	b	b	1	475	5
110	B	36	650	h	j	0	542	4
110	B	37	800	b	b	1	475	5
110	B	38	500	l	l	1	485	1
110	B	39	1100	j	j	1	410	3
110	B	40	1100	k	k	1	430	2
110	B	41	650	l	l	1	402	1
110	B	42	500	k	j	0	442	2
110	B	43	1100	b	b	1	513	5
110	B	44	500	h	h	1	443	4
110	B	45	950	l	l	1	410	1
110	B	46	800	k	k	1	592	2
110	B	47	950	h	h	1	547	4
110	B	48	800	j	j	1	549	3
110	B	49	1100	b	b	1	510	5
110	B	50	950	k	k	1	467	2
110	C	1	800	j	j	1	571	3
110	C	2	1100	l	l	1	462	5
110	C	3	950	h	h	1	414	2
110	C	4	500	j	h	0	507	3
110	C	5	500	k	k	1	499	4
110	C	6	950	b	b	1	473	1
110	C	7	650	j	j	1	619	3
110	C	8	950	h	b	0	430	2
110	C	9	650	k	k	1	638	4
110	C	10	1100	b	b	1	630	1
110	C	11	950	l	l	1	472	5
110	C	12	650	k	k	1	518	4
110	C	13	800	l	l	1	426	5
110	C	14	500	b	b	1	547	1
110	C	15	1100	j	j	1	570	3
110	C	16	1100	h	h	1	423	2
110	C	17	650	b	b	1	613	1
110	C	18	500	h	h	1	607	2
110	C	19	1100	l	l	1	477	5
110	C	20	800	h	h	1	445	2
110	C	21	950	k	k	1	629	4
110	C	22	950	j	j	1	410	3
110	C	23	800	b	b	1	503	1
110	C	24	800	k	k	1	605	4
110	C	25	650	h	h	1	455	2
110	C	26	500	l	l	1	538	5
110	C	27	800	b	b	1	413	1
110	C	28	650	h	h	1	359	2
110	C	29	500	b	b	1	586	1
110	C	30	500	k	k	1	538	4
110	C	31	950	l	l	1	458	5
110	C	32	1100	j	j	1	474	3
110	C	33	1100	k	k	1	581	4
110	C	34	950	b	b	1	671	1
110	C	35	800	l	l	1	458	5
110	C	36	950	j	j	1	485	3
110	C	37	650	b	b	1	535	1
110	C	38	1100	k	k	1	530	4
110	C	39	500	l	l	1	375	5
110	C	40	500	h	b	0	402	2
110	C	41	950	k	k	1	682	4
110	C	42	500	j	j	1	551	3
110	C	43	1100	h	h	1	530	2
110	C	44	800	j	j	1	578	3
110	C	45	800	k	k	1	533	4
110	C	46	1100	b	b	1	469	1
110	C	47	650	l	l	1	599	5
110	C	48	800	h	h	1	490	2
110	C	49	650	j	j	1	389	3
110	C	50	650	l	l	1	458	5
110	D	1	650	b	b	1	455	5
110	D	2	650	j	j	1	530	3
110	D	3	800	k	k	1	462	2
110	D	4	650	b	b	1	431	5
110	D	5	1100	l	l	1	496	1
110	D	6	800	h	h	1	509	4
110	D	7	800	j	j	1	540	3
110	D	8	1100	k	k	1	579	2
110	D	9	500	j	j	1	530	3
110	D	10	950	h	h	1	417	4
110	D	11	500	k	k	1	434	2
110	D	12	500	b	b	1	490	5
110	D	13	1100	h	h	1	589	4
110	D	14	650	l	l	1	439	1
110	D	15	950	j	j	1	519	3
110	D	16	800	b	b	1	659	5
110	D	17	950	l	l	1	569	1
110	D	18	1100	h	h	1	388	4
110	D	19	1100	j	j	1	385	3
110	D	20	950	b	b	1	459	5
110	D	21	500	h	h	1	571	4
110	D	22	500	l	l	1	454	1
110	D	23	650	k	l	0	490	2
110	D	24	800	l	l	1	419	1
110	D	25	500	b	h	0	478	5
110	D	26	650	k	l	0	369	2
110	D	27	800	h	h	1	550	4
110	D	28	800	l	l	1	531	1
110	D	29	950	j	j	1	521	3
110	D	30	950	h	h	1	438	4
110	D	31	800	k	k	1	370	2
110	D	32	1100	b	b	1	561	5
110	D	33	500	k	k	1	499	2
110	D	34	650	l	l	1	571	1
110	D	35	1100	k	k	1	478	2
110	D	36	1100	j	j	1	384	3
110	D	37	500	l	l	1	717	1
110	D	38	800	b	b	1	537	5
110	D	39	650	h	h	1	579	4
110	D	40	950	b	b	1	473	5
110	D	41	1100	l	l	1	474	1
110	D	42	650	h	h	1	483	4
110	D	43	950	k	k	1	358	2
110	D	44	650	j	j	1	544	3
110	D	45	950	l	l	1	487	1
110	D	46	500	h	h	1	553	4
110	D	47	500	j	j	1	438	3
110	D	48	950	k	k	1	425	2
110	D	49	1100	b	b	1	622	5
110	D	50	800	j	j	1	507	3
112	A	1	950	k	k	1	694	4
112	A	2	800	h	h	1	657	2
112	A	3	950	b	b	1	724	1
112	A	4	500	k	k	1	638	4
112	A	5	1100	l	l	1	555	5
112	A	6	500	h	h	1	614	2
112	A	7	650	b	b	1	628	1
112	A	8	1100	h	h	1	590	2
112	A	9	1100	j	j	1	571	3
112	A	10	500	b	b	1	622	1
112	A	11	800	l	l	1	473	5
112	A	12	650	k	k	1	612	4
112	A	13	950	l	l	1	590	5
112	A	14	1100	b	b	1	692	1
112	A	15	650	k	k	1	564	4
112	A	16	950	h	h	1	700	2
112	A	17	650	j	k	0	845	3
112	A	18	650	l	l	1	397	5
112	A	19	650	j	j	1	650	3
112	A	20	950	k	k	1	977	4
112	A	21	800	j	j	1	557	3
112	A	22	1100	b	b	1	721	1
112	A	23	800	k	k	1	612	4
112	A	24	950	h	h	1	556	2
112	A	25	1100	l	l	1	533	5
112	A	26	800	j	j	1	752	3
112	A	27	1100	h	h	1	545	2
112	A	28	500	j	j	1	1666	3
112	A	29	500	h	h	1	342	2
112	A	30	500	l	l	1	672	5
112	A	31	1100	k	k	1	561	4
112	A	32	650	b	b	1	508	1
112	A	33	950	j	j	1	938	3
112	A	34	800	l	l	1	418	5
112	A	35	950	b	b	1	574	1
112	A	36	1100	k	k	1	634	4
112	A	37	1100	j	j	1	744	3
112	A	38	950	l	l	1	487	5
112	A	39	500	k	k	1	528	4
112	A	40	500	b	h	0	506	1
112	A	41	650	h	h	1	530	2
112	A	42	800	b	b	1	627	1
112	A	43	500	l	l	1	578	5
112	A	44	650	h	h	1	629	2
112	A	45	800	k	k	1	482	4
112	A	46	800	b	b	1	635	1
112	A	47	950	j	j	1	837	3
112	A	48	800	h	h	1	621	2
112	A	49	650	l	l	1	453	5
112	A	50	500	j	j	1	461	3
112	B	1	950	j	j	1	441	3
112	B	2	800	l	l	1	516	1
112	B	3	800	h	h	1	758	4
112	B	4	650	k	k	1	713	2
112	B	5	500	b	b	1	662	5
112	B	6	800	l	l	1	548	1
112	B	7	650	k	k	1	561	2
112	B	8	500	l	l	1	470	1
112	B	9	500	h	h	1	756	4
112	B	10	950	b	b	1	489	5
112	B	11	1100	j	j	1	734	3
112	B	12	1100	h	h	1	828	4
112	B	13	950	l	l	1	494	1
112	B	14	800	b	b	1	593	5
112	B	15	950	j	j	1	916	3
112	B	16	650	l	l	1	478	1
112	B	17	1100	h	h	1	518	4
112	B	18	500	b	b	1	545	5
112	B	19	500	k	k	1	502	2
112	B	20	950	h	h	1	881	4
112	B	21	500	j	j	1	598	3
112	B	22	1100	k	k	1	585	2
112	B	23	800	j	j	1	761	3
112	B	24	800	h	h	1	1022	4
112	B	25	1100	l	l	1	564	1
112	B	26	500	j	j	1	764	3
112	B	27	650	b	b	1	598	5
112	B	28	800	k	k	1	660	2
112	B	29	650	j	j	1	597	3
112	B	30	650	b	b	1	553	5
112	B	31	650	j	j	1	538	3
112	B	32	950	k	k	1	916	2
112	B	33	650	h	h	1	531	4
112	B	34	1100	l	l	1	459	1
112	B	35	950	b	b	1	704	5
112	B	36	650	h	h	1	677	4
112	B	37	800	b	b	1	496	5
112	B	38	500	l	l	1	442	1
112	B	39	1100	j	j	1	645	3
112	B	40	1100	k	k	1	396	2
112	B	41	650	l	l	1	450	1
112	B	42	500	k	k	1	552	2
112	B	43	1100	b	b	1	576	5
112	B	44	500	h	h	1	517	4
112	B	45	950	l	l	1	493	1
112	B	46	800	k	k	1	677	2
112	B	47	950	h	h	1	485	4
112	B	48	800	j	j	1	993	3
112	B	49	1100	b	b	1	498	5
112	B	50	950	k	k	1	546	2
112	C	1	800	j	j	1	485	3
112	C	2	1100	l	l	1	472	5
112	C	3	950	h	h	1	389	2
112	C	4	500	j	j	1	693	3
112	C	5	500	k	k	1	613	4
112	C	6	950	b	b	1	562	1
112	C	7	650	j	j	1	776	3
112	C	8	950	h	h	1	610	2
112	C	9	650	k	k	1	610	4
112	C	10	1100	b	b	1	589	1
112	C	11	950	l	l	1	504	5
112	C	12	650	k	k	1	712	4
112	C	13	800	l	l	1	450	5
112	C	14	500	b	b	1	470	1
112	C	15	1100	j	j	1	506	3
112	C	16	1100	h	h	1	480	2
112	C	17	650	b	b	1	722	1
112	C	18	500	h	h	1	597	2
112	C	19	1100	l	l	1	506	5
112	C	20	800	h	h	1	616	2
112	C	21	950	k	k	1	554	4
112	C	22	950	j	j	1	549	3
112	C	23	800	b	b	1	445	1
112	C	24	800	k	k	1	645	4
112	C	25	650	h	h	1	640	2
112	C	26	500	l	l	1	480	5
112	C	27	800	b	b	1	1034	1
112	C	28	650	h	h	1	514	2
112	C	29	500	b	b	1	778	1
112	C	30	500	k	k	1	434	4
112	C	31	950	l	l	1	442	5
112	C	32	1100	j	j	1	565	3
112	C	33	1100	k	k	1	581	4
112	C	34	950	b	b	1	626	1
112	C	35	800	l	l	1	647	5
112	C	36	950	j	j	1	335	3
112	C	37	650	b	b	1	551	1
112	C	38	1100	k	k	1	495	4
112	C	39	500	l	l	1	422	5
112	C	40	500	h	h	1	495	2
112	C	41	950	k	k	1	524	4
112	C	42	500	j	j	1	329	3
112	C	43	1100	h	h	1	1060	2
112	C	44	800	j	j	1	604	3
112	C	45	800	k	k	1	646	4
112	C	46	1100	b	b	1	641	1
112	C	47	650	l	l	1	441	5
112	C	48	800	h	h	1	476	2
112	C	49	650	j	j	1	532	3
112	C	50	650	l	l	1	453	5
112	D	1	650	b	b	1	652	5
112	D	2	650	j	j	1	799	3
112	D	3	800	k	k	1	532	2
112	D	4	650	b	b	1	536	5
112	D	5	1100	l	l	1	666	1
112	D	6	800	h	h	1	647	4
112	D	7	800	j	j	1	1306	3
112	D	8	1100	k	k	1	479	2
112	D	9	500	j	j	1	1186	3
112	D	10	950	h	h	1	727	4
112	D	11	500	k	k	1	776	2
112	D	12	500	b	b	1	736	5
112	D	13	1100	h	h	1	790	4
112	D	14	650	l	l	1	626	1
112	D	15	950	j	j	1	759	3
112	D	16	800	b	b	1	728	5
112	D	17	950	l	b	0	599	1
112	D	18	1100	h	h	1	648	4
112	D	19	1100	j	j	1	626	3
112	D	20	950	b	b	1	702	5
112	D	21	500	h	h	1	827	4
112	D	22	500	l	l	1	695	1
112	D	23	650	k	k	1	552	2
112	D	24	800	l	l	1	516	1
112	D	25	500	b	b	1	787	5
112	D	26	650	k	k	1	763	2
112	D	27	800	h	h	1	507	4
112	D	28	800	l	l	1	628	1
112	D	29	950	j	j	1	689	3
112	D	30	950	h	h	1	869	4
112	D	31	800	k	k	1	648	2
112	D	32	1100	b	b	1	691	5
112	D	33	500	k	k	1	531	2
112	D	34	650	l	l	1	1194	1
112	D	35	1100	k	k	1	672	2
112	D	36	1100	j	j	1	737	3
112	D	37	500	l	l	1	520	1
112	D	38	800	b	b	1	552	5
112	D	39	650	h	h	1	632	4
112	D	40	950	b	b	1	813	5
112	D	41	1100	l	l	1	606	1
112	D	42	650	h	h	1	621	4
112	D	43	950	k	k	1	427	2
112	D	44	650	j	j	1	790	3
112	D	45	950	l	l	1	424	1
112	D	46	500	h	h	1	936	4
112	D	47	500	j	j	1	496	3
112	D	48	950	k	k	1	504	2
112	D	49	1100	b	b	1	792	5
112	D	50	800	j	j	1	798	3
113	A	1	950	k	k	1	913	4
113	A	2	800	h	h	1	681	2
113	A	3	950	b	b	1	631	1
113	A	4	500	k	k	1	536	4
113	A	5	1100	l	l	1	542	5
113	A	6	500	h	h	1	766	2
113	A	7	650	b	b	1	662	1
113	A	8	1100	h	h	1	819	2
113	A	9	1100	j	j	1	688	3
113	A	10	500	b	b	1	634	1
113	A	11	800	l	l	1	646	5
113	A	12	650	k	k	1	587	4
113	A	13	950	l	l	1	395	5
113	A	14	1100	b	b	1	674	1
113	A	15	650	k	k	1	720	4
113	A	16	950	h	h	1	941	2
113	A	17	650	j	j	1	635	3
113	A	18	650	l	l	1	987	5
113	A	19	650	j	j	1	1166	3
113	A	20	950	k	k	1	806	4
113	A	21	800	j	j	1	651	3
113	A	22	1100	b	b	1	463	1
113	A	23	800	k	k	1	402	4
113	A	24	950	h	h	1	546	2
113	A	25	1100	l	l	1	720	5
113	A	26	800	j	j	1	589	3
113	A	27	1100	h	h	1	549	2
113	A	28	500	j	j	1	676	3
113	A	29	500	h	h	1	826	2
113	A	30	500	l	l	1	540	5
113	A	31	1100	k	k	1	525	4
113	A	32	650	b	b	1	541	1
113	A	33	950	j	j	1	703	3
113	A	34	800	l	l	1	655	5
113	A	35	950	b	b	1	942	1
113	A	36	1100	k	k	1	877	4
113	A	37	1100	j	j	1	743	3
113	A	38	950	l	l	1	799	5
113	A	39	500	k	k	1	962	4
113	A	40	500	b	b	1	622	1
113	A	41	650	h	h	1	751	2
113	A	42	800	b	b	1	689	1
113	A	43	500	l	l	1	898	5
113	A	44	650	h	h	1	1013	2
113	A	45	800	k	k	1	829	4
113	A	46	800	b	b	1	750	1
113	A	47	950	j	j	1	690	3
113	A	48	800	h	h	1	994	2
113	A	49	650	l	l	1	623	5
113	A	50	500	j	j	1	1210	3
113	B	1	950	j	j	1	1209	3
113	B	2	800	l	l	1	649	1
113	B	3	800	h	h	1	790	4
113	B	4	650	k	k	1	1609	2
113	B	5	500	b	b	1	562	5
113	B	6	800	l	l	1	550	1
113	B	7	650	k	k	1	786	2
113	B	8	500	l	l	1	691	1
113	B	9	500	h	h	1	816	4
113	B	10	950	b	b	1	639	5
113	B	11	1100	j	j	1	899	3
113	B	12	1100	h	h	1	978	4
113	B	13	950	l	l	1	870	1
113	B	14	800	b	l	0	732	5
113	B	15	950	j	j	1	790	3
113	B	16	650	l	l	1	590	1
113	B	17	1100	h	h	1	735	4
113	B	18	500	b	b	1	1010	5
113	B	19	500	k	k	1	1181	2
113	B	20	950	h	h	1	962	4
113	B	21	500	j	j	1	595	3
113	B	22	1100	k	k	1	709	2
113	B	23	800	j	j	1	663	3
113	B	24	800	h	h	1	909	4
113	B	25	1100	l	l	1	343	1
113	B	26	500	j	j	1	663	3
113	B	27	650	b	b	1	687	5
113	B	28	800	k	k	1	1637	2
113	B	29	650	j	j	1	383	3
113	B	30	650	b	b	1	700	5
113	B	31	650	j	j	1	725	3
113	B	32	950	k	k	1	895	2
113	B	33	650	h	h	1	910	4
113	B	34	1100	l	l	1	586	1
113	B	35	950	b	b	1	1468	5
113	B	36	650	h	h	1	1001	4
113	B	37	800	b	b	1	713	5
113	B	38	500	l	l	1	530	1
113	B	39	1100	j	j	1	711	3
113	B	40	1100	k	k	1	1020	2
113	B	41	650	l	l	1	575	1
113	B	42	500	k	k	1	1156	2
113	B	43	1100	b	b	1	598	5
113	B	44	500	h	h	1	761	4
113	B	45	950	l	l	1	626	1
113	B	46	800	k	k	1	689	2
113	B	47	950	h	h	1	793	4
113	B	48	800	j	j	1	658	3
113	B	49	1100	b	b	1	699	5
113	B	50	950	k	k	1	654	2
113	C	1	800	j	j	1	552	3
113	C	2	1100	l	l	1	368	5
113	C	3	950	h	h	1	741	2
113	C	4	500	j	j	1	792	3
113	C	5	500	k	k	1	488	4
113	C	6	950	b	b	1	600	1
113	C	7	650	j	j	1	1056	3
113	C	8	950	h	h	1	570	2
113	C	9	650	k	k	1	498	4
113	C	10	1100	b	b	1	530	1
113	C	11	950	l	l	1	544	5
113	C	12	650	k	k	1	706	4
113	C	13	800	l	l	1	594	5
113	C	14	500	b	b	1	378	1
113	C	15	1100	j	j	1	1010	3
113	C	16	1100	h	h	1	826	2
113	C	17	650	b	b	1	762	1
113	C	18	500	h	h	1	1208	2
113	C	19	1100	l	l	1	666	5
113	C	20	800	h	h	1	888	2
113	C	21	950	k	k	1	701	4
113	C	22	950	j	j	1	405	3
113	C	23	800	b	b	1	510	1
113	C	24	800	k	k	1	693	4
113	C	25	650	h	h	1	765	2
113	C	26	500	l	l	1	509	5
113	C	27	800	b	b	1	541	1
113	C	28	650	h	h	1	730	2
113	C	29	500	b	b	1	378	1
113	C	30	500	k	k	1	472	4
113	C	31	950	l	l	1	436	5
113	C	32	1100	j	j	1	642	3
113	C	33	1100	k	k	1	338	4
113	C	34	950	b	b	1	386	1
113	C	35	800	l	l	1	489	5
113	C	36	950	j	j	1	665	3
113	C	37	650	b	b	1	497	1
113	C	38	1100	k	k	1	527	4
113	C	39	500	l	l	1	593	5
113	C	40	500	h	h	1	751	2
113	C	41	950	k	k	1	729	4
113	C	42	500	j	j	1	865	3
113	C	43	1100	h	h	1	793	2
113	C	44	800	j	j	1	900	3
113	C	45	800	k	k	1	673	4
113	C	46	1100	b	b	1	1519	1
113	C	47	650	l	l	1	524	5
113	C	48	800	h	h	1	942	2
113	C	49	650	j	j	1	740	3
113	C	50	650	l	l	1	560	5
113	D	1	650	b	b	1	887	5
113	D	2	650	j	j	1	1098	3
113	D	3	800	k	k	1	583	2
113	D	4	650	b	b	1	836	5
113	D	5	1100	l	l	1	666	1
113	D	6	800	h	h	1	890	4
113	D	7	800	j	j	1	846	3
113	D	8	1100	k	k	1	596	2
113	D	9	500	j	j	1	870	3
113	D	10	950	h	h	1	818	4
113	D	11	500	k	k	1	778	2
113	D	12	500	b	b	1	474	5
113	D	13	1100	h	h	1	1116	4
113	D	14	650	l	l	1	679	1
113	D	15	950	j	j	1	806	3
113	D	16	800	b	b	1	863	5
113	D	17	950	l	l	1	759	1
113	D	18	1100	h	h	1	884	4
113	D	19	1100	j	j	1	787	3
113	D	20	950	b	b	1	1047	5
113	D	21	500	h	h	1	970	4
113	D	22	500	l	l	1	729	1
113	D	23	650	k	k	1	895	2
113	D	24	800	l	l	1	569	1
113	D	25	500	b	b	1	912	5
113	D	26	650	k	k	1	887	2
113	D	27	800	h	h	1	930	4
113	D	28	800	l	j	0	847	1
113	D	29	950	j	j	1	734	3
113	D	30	950	h	h	1	710	4
113	D	31	800	k	k	1	588	2
113	D	32	1100	b	b	1	1094	5
113	D	33	500	k	k	1	547	2
113	D	34	650	l	l	1	697	1
113	D	35	1100	k	k	1	675	2
113	D	36	1100	j	j	1	978	3
113	D	37	500	l	l	1	646	1
113	D	38	800	b	b	1	862	5
113	D	39	650	h	h	1	923	4
113	D	40	950	b	b	1	646	5
113	D	41	1100	l	l	1	686	1
113	D	42	650	h	h	1	923	4
113	D	43	950	k	k	1	843	2
113	D	44	650	j	j	1	898	3
113	D	45	950	l	l	1	670	1
113	D	46	500	h	h	1	854	4
113	D	47	500	j	j	1	648	3
113	D	48	950	k	k	1	670	2
113	D	49	1100	b	b	1	624	5
113	D	50	800	j	j	1	1397	3
114	A	1	950	k	k	1	735	4
114	A	2	800	h	h	1	969	2
114	A	3	950	b	b	1	610	1
114	A	4	500	k	k	1	916	4
114	A	5	1100	l	l	1	860	5
114	A	6	500	h	h	1	413	2
114	A	7	650	b	b	1	1004	1
114	A	8	1100	h	h	1	622	2
114	A	9	1100	j	j	1	472	3
114	A	10	500	b	b	1	674	1
114	A	11	800	l	l	1	712	5
114	A	12	650	k	k	1	655	4
114	A	13	950	l	l	1	702	5
114	A	14	1100	b	b	1	861	1
114	A	15	650	k	k	1	436	4
114	A	16	950	h	h	1	665	2
114	A	17	650	j	j	1	383	3
114	A	18	650	l	l	1	610	5
114	A	19	650	j	j	1	369	3
114	A	20	950	k	k	1	599	4
114	A	21	800	j	j	1	624	3
114	A	22	1100	b	b	1	816	1
114	A	23	800	k	k	1	736	4
114	A	24	950	h	h	1	629	2
114	A	25	1100	l	l	1	560	5
114	A	26	800	j	j	1	728	3
114	A	27	1100	h	h	1	570	2
114	A	28	500	j	j	1	608	3
114	A	29	500	h	h	1	650	2
114	A	30	500	l	l	1	703	5
114	A	31	1100	k	k	1	579	4
114	A	32	650	b	b	1	409	1
114	A	33	950	j	j	1	818	3
114	A	34	800	l	l	1	415	5
114	A	35	950	b	b	1	1129	1
114	A	36	1100	k	k	1	945	4
114	A	37	1100	j	j	1	518	3
114	A	38	950	l	l	1	503	5
114	A	39	500	k	k	1	693	4
114	A	40	500	b	b	1	1023	1
114	A	41	650	h	h	1	857	2
114	A	42	800	b	b	1	720	1
114	A	43	500	l	l	1	601	5
114	A	44	650	h	h	1	677	2
114	A	45	800	k	k	1	565	4
114	A	46	800	b	b	1	954	1
114	A	47	950	j	j	1	555	3
114	A	48	800	h	h	1	602	2
114	A	49	650	l	l	1	524	5
114	A	50	500	j	j	1	554	3
114	B	1	950	j	j	1	718	3
114	B	2	800	l	l	1	547	1
114	B	3	800	h	h	1	941	4
114	B	4	650	k	k	1	733	2
114	B	5	500	b	b	1	735	5
114	B	6	800	l	l	1	438	1
114	B	7	650	k	k	1	632	2
114	B	8	500	l	l	1	523	1
114	B	9	500	h	h	1	591	4
114	B	10	950	b	b	1	1359	5
114	B	11	1100	j	j	1	444	3
114	B	12	1100	h	h	1	1128	4
114	B	13	950	l	l	1	472	1
114	B	14	800	b	b	1	713	5
114	B	15	950	j	j	1	1046	3
114	B	16	650	l	l	1	498	1
114	B	17	1100	h	h	1	825	4
114	B	18	500	b	b	1	649	5
114	B	19	500	k	k	1	1030	2
114	B	20	950	h	h	1	889	4
114	B	21	500	j	j	1	640	3
114	B	22	1100	k	k	1	520	2
114	B	23	800	j	j	1	643	3
114	B	24	800	h	h	1	703	4
114	B	25	1100	l	l	1	440	1
114	B	26	500	k	k	1	826	3
114	B	27	650	b	b	1	741	5
114	B	28	800	k	k	1	505	2
114	B	29	650	j	j	1	698	3
114	B	30	650	b	b	1	681	5
114	B	31	650	j	j	1	479	3
114	B	32	950	k	k	1	624	2
114	B	33	650	h	h	1	537	4
114	B	34	1100	l	l	1	481	1
114	B	35	950	b	b	1	759	5
114	B	36	650	h	h	1	1020	4
114	B	37	800	b	b	1	1113	5
114	B	38	500	l	l	1	526	1
114	B	39	1100	j	j	1	441	3
114	B	40	1100	k	k	1	553	2
114	B	41	650	l	l	1	520	1
114	B	42	500	k	k	1	658	2
114	B	43	1100	b	b	1	707	5
114	B	44	500	h	h	1	821	4
114	B	45	950	l	l	1	437	1
114	B	46	800	k	k	1	562	2
114	B	47	950	h	l	0	832	4
114	B	48	800	j	j	1	772	3
114	B	49	1100	b	b	1	946	5
114	B	50	950	k	k	1	688	2
114	C	1	800	j	j	1	719	3
114	C	2	1100	l	l	1	491	5
114	C	3	950	h	h	1	444	2
114	C	4	500	j	j	1	859	3
114	C	5	500	k	k	1	617	4
114	C	6	950	b	b	1	558	1
114	C	7	650	j	j	1	631	3
114	C	8	950	h	h	1	717	2
114	C	9	650	k	k	1	818	4
114	C	10	1100	b	b	1	522	1
114	C	11	950	l	l	1	490	5
114	C	12	650	k	k	1	669	4
114	C	13	800	l	l	1	495	5
114	C	14	500	b	b	1	575	1
114	C	15	1100	j	j	1	586	3
114	C	16	1100	h	h	1	767	2
114	C	17	650	b	b	1	604	1
114	C	18	500	h	h	1	908	2
114	C	19	1100	l	l	1	454	5
114	C	20	800	h	h	1	623	2
114	C	21	950	k	k	1	505	4
114	C	22	950	j	j	1	547	3
114	C	23	800	b	b	1	463	1
114	C	24	800	k	k	1	675	4
114	C	25	650	h	h	1	611	2
114	C	26	500	l	l	1	497	5
114	C	27	800	b	b	1	508	1
114	C	28	650	h	h	1	600	2
114	C	29	500	b	b	1	744	1
114	C	30	500	k	k	1	592	4
114	C	31	950	l	l	1	410	5
114	C	32	1100	j	j	1	494	3
114	C	33	1100	k	k	1	902	4
114	C	34	950	b	b	1	588	1
114	C	35	800	l	l	1	472	5
114	C	36	950	j	j	1	584	3
114	C	37	650	b	b	1	553	1
114	C	38	1100	k	k	1	772	4
114	C	39	500	l	l	1	519	5
114	C	40	500	h	h	1	603	2
114	C	41	950	k	k	1	582	4
114	C	42	500	j	j	1	699	3
114	C	43	1100	h	h	1	570	2
114	C	44	800	j	j	1	758	3
114	C	45	800	k	k	1	983	4
114	C	46	1100	b	b	1	518	1
114	C	47	650	l	l	1	456	5
114	C	48	800	h	h	1	651	2
114	C	49	650	j	j	1	595	3
114	C	50	650	l	l	1	443	5
114	D	1	650	b	b	1	798	5
114	D	2	650	j	j	1	820	3
114	D	3	800	k	k	1	803	2
114	D	4	650	b	b	1	510	5
114	D	5	1100	l	l	1	715	1
114	D	6	800	h	h	1	916	4
114	D	7	800	j	j	1	609	3
114	D	8	1100	k	k	1	694	2
114	D	9	500	j	j	1	573	3
114	D	10	950	h	h	1	1459	4
114	D	11	500	k	k	1	636	2
114	D	12	500	b	b	1	840	5
114	D	13	1100	h	k	0	812	4
114	D	14	650	l	l	1	694	1
114	D	15	950	j	j	1	528	3
114	D	16	800	b	b	1	501	5
114	D	17	950	l	l	1	610	1
114	D	18	1100	h	h	1	819	4
114	D	19	1100	j	j	1	609	3
114	D	20	950	b	b	1	668	5
114	D	21	500	h	h	1	828	4
114	D	22	500	l	l	1	660	1
114	D	23	650	k	k	1	728	2
114	D	24	800	l	l	1	696	1
114	D	25	500	b	b	1	775	5
114	D	26	650	k	k	1	940	2
114	D	27	800	h	h	1	741	4
114	D	28	800	l	l	1	621	1
114	D	29	950	j	j	1	854	3
114	D	30	950	h	h	1	798	4
114	D	31	800	k	k	1	578	2
114	D	32	1100	b	b	1	622	5
114	D	33	500	k	k	1	1142	2
114	D	34	650	l	l	1	661	1
114	D	35	1100	k	k	1	693	2
114	D	36	1100	j	j	1	535	3
114	D	37	500	l	l	1	1135	1
114	D	38	800	b	b	1	644	5
114	D	39	650	h	h	1	743	4
114	D	40	950	b	b	1	586	5
114	D	41	1100	l	l	1	559	1
114	D	42	650	h	h	1	599	4
114	D	43	950	k	k	1	684	2
114	D	44	650	j	j	1	731	3
114	D	45	950	l	l	1	392	1
114	D	46	500	h	h	1	585	4
114	D	47	500	j	j	1	672	3
114	D	48	950	k	k	1	633	2
114	D	49	1100	b	b	1	745	5
114	D	50	800	j	j	1	671	3
115	A	1	950	k	k	1	640	4
115	A	2	800	h	h	1	600	2
115	A	3	950	b	b	1	488	1
115	A	4	500	k	k	1	880	4
115	A	5	1100	l	l	1	1332	5
115	A	6	500	h	h	1	601	2
115	A	7	650	b	b	1	593	1
115	A	8	1100	h	h	1	460	2
115	A	9	1100	j	j	1	705	3
115	A	10	500	b	b	1	433	1
115	A	11	800	l	l	1	460	5
115	A	12	650	k	k	1	454	4
115	A	13	950	l	l	1	515	5
115	A	14	1100	b	b	1	451	1
115	A	15	650	k	k	1	586	4
115	A	16	950	h	b	0	510	2
115	A	17	650	j	j	1	528	3
115	A	18	650	l	l	1	530	5
115	A	19	650	j	j	1	536	3
115	A	20	950	k	k	1	500	4
115	A	21	800	j	j	1	557	3
115	A	22	1100	b	b	1	355	1
115	A	23	800	k	k	1	504	4
115	A	24	950	h	h	1	456	2
115	A	25	1100	l	l	1	427	5
115	A	26	800	j	j	1	548	3
115	A	27	1100	h	h	1	530	2
115	A	28	500	j	j	1	619	3
115	A	29	500	h	h	1	455	2
115	A	30	500	l	l	1	495	5
115	A	31	1100	k	k	1	366	4
115	A	32	650	b	b	1	507	1
115	A	33	950	j	j	1	541	3
115	A	34	800	l	l	1	424	5
115	A	35	950	b	b	1	501	1
115	A	36	1100	k	k	1	527	4
115	A	37	1100	j	j	1	396	3
115	A	38	950	l	l	1	503	5
115	A	39	500	k	k	1	682	4
115	A	40	500	b	h	0	675	1
115	A	41	650	h	h	1	363	2
115	A	42	800	b	b	1	576	1
115	A	43	500	l	l	1	516	5
115	A	44	650	h	h	1	570	2
115	A	45	800	k	k	1	429	4
115	A	46	800	b	b	1	498	1
115	A	47	950	j	j	1	520	3
115	A	48	800	h	h	1	423	2
115	A	49	650	l	l	1	511	5
115	A	50	500	j	j	1	531	3
115	B	1	950	j	j	1	450	3
115	B	2	800	l	l	1	457	1
115	B	3	800	h	h	1	556	4
115	B	4	650	k	l	0	516	2
115	B	5	500	b	b	1	523	5
115	B	6	800	l	l	1	533	1
115	B	7	650	k	k	1	492	2
115	B	8	500	l	l	1	502	1
115	B	9	500	h	h	1	630	4
115	B	10	950	b	b	1	565	5
115	B	11	1100	j	j	1	559	3
115	B	12	1100	h	h	1	728	4
115	B	13	950	l	l	1	524	1
115	B	14	800	b	h	0	608	5
115	B	15	950	j	j	1	707	3
115	B	16	650	l	l	1	543	1
115	B	17	1100	h	h	1	750	4
115	B	18	500	b	b	1	2338	5
115	B	19	500	k	k	1	520	2
115	B	20	950	h	h	1	640	4
115	B	21	500	j	j	1	613	3
115	B	22	1100	k	j	0	434	2
115	B	23	800	j	j	1	667	3
115	B	24	800	h	h	1	447	4
115	B	25	1100	l	l	1	391	1
115	B	26	500	j	j	1	546	3
115	B	27	650	b	b	1	561	5
115	B	28	800	k	k	1	506	2
115	B	29	650	j	j	1	384	3
115	B	30	650	b	b	1	573	5
115	B	31	650	j	j	1	689	3
115	B	32	950	k	k	1	461	2
115	B	33	650	h	h	1	743	4
115	B	34	1100	l	l	1	406	1
115	B	35	950	b	b	1	656	5
115	B	36	650	h	h	1	481	4
115	B	37	800	b	b	1	548	5
115	B	38	500	l	b	0	460	1
115	B	39	1100	j	j	1	533	3
115	B	40	1100	k	k	1	552	2
115	B	41	650	l	l	1	424	1
115	B	42	500	k	k	1	452	2
115	B	43	1100	b	b	1	520	5
115	B	44	500	h	h	1	605	4
115	B	45	950	l	l	1	404	1
115	B	46	800	k	k	1	321	2
115	B	47	950	h	j	0	422	4
115	B	48	800	j	h	0	808	3
115	B	49	1100	b	b	1	590	5
115	B	50	950	k	h	0	395	2
115	C	1	800	j	j	1	536	3
115	C	2	1100	l	l	1	459	5
115	C	3	950	h	h	1	500	2
115	C	4	500	j	j	1	530	3
115	C	5	500	k	k	1	483	4
115	C	6	950	b	b	1	519	1
115	C	7	650	j	j	1	677	3
115	C	8	950	h	h	1	498	2
115	C	9	650	k	k	1	717	4
115	C	10	1100	b	b	1	441	1
115	C	11	950	l	l	1	457	5
115	C	12	650	k	k	1	453	4
115	C	13	800	l	l	1	484	5
115	C	14	500	b	b	1	430	1
115	C	15	1100	j	j	1	512	3
115	C	16	1100	h	b	0	431	2
115	C	17	650	b	b	1	599	1
115	C	18	500	h	h	1	457	2
115	C	19	1100	l	k	0	521	5
115	C	20	800	h	h	1	488	2
115	C	21	950	k	k	1	601	4
115	C	22	950	j	j	1	542	3
115	C	23	800	b	b	1	440	1
115	C	24	800	k	k	1	456	4
115	C	25	650	h	h	1	432	2
115	C	26	500	l	l	1	404	5
115	C	27	800	b	b	1	516	1
115	C	28	650	h	h	1	655	2
115	C	29	500	b	b	1	468	1
115	C	30	500	k	k	1	310	4
115	C	31	950	l	l	1	520	5
115	C	32	1100	j	j	1	397	3
115	C	33	1100	k	k	1	281	4
115	C	34	950	b	b	1	509	1
115	C	35	800	l	l	1	583	5
115	C	36	950	j	j	1	501	3
115	C	37	650	b	b	1	309	1
115	C	38	1100	k	j	0	445	4
115	C	39	500	l	l	1	540	5
115	C	40	500	h	h	1	849	2
115	C	41	950	k	k	1	488	4
115	C	42	500	j	j	1	425	3
115	C	43	1100	h	h	1	568	2
115	C	44	800	j	j	1	519	3
115	C	45	800	k	k	1	501	4
115	C	46	1100	b	b	1	396	1
115	C	47	650	l	l	1	484	5
115	C	48	800	h	h	1	662	2
115	C	49	650	j	l	0	480	3
115	C	50	650	l	l	1	555	5
115	D	1	650	b	b	1	843	5
115	D	2	650	j	j	1	573	3
115	D	3	800	k	k	1	459	2
115	D	4	650	b	b	1	561	5
115	D	5	1100	l	h	0	370	1
115	D	6	800	h	h	1	539	4
115	D	7	800	j	j	1	591	3
115	D	8	1100	k	k	1	1063	2
115	D	9	500	j	j	1	517	3
115	D	10	950	h	h	1	424	4
115	D	11	500	k	k	1	650	2
115	D	12	500	b	b	1	545	5
115	D	13	1100	h	h	1	553	4
115	D	14	650	l	b	0	490	1
115	D	15	950	j	j	1	605	3
115	D	16	800	b	b	1	468	5
115	D	17	950	l	l	1	576	1
115	D	18	1100	h	h	1	540	4
115	D	19	1100	j	j	1	402	3
115	D	20	950	b	b	1	711	5
115	D	21	500	h	h	1	419	4
115	D	22	500	l	l	1	432	1
115	D	23	650	k	k	1	625	2
115	D	24	800	l	l	1	411	1
115	D	25	500	b	b	1	508	5
115	D	26	650	k	k	1	621	2
115	D	27	800	h	h	1	477	4
115	D	28	800	l	l	1	466	1
115	D	29	950	j	j	1	412	3
115	D	30	950	h	h	1	600	4
115	D	31	800	k	k	1	446	2
115	D	32	1100	b	b	1	559	5
115	D	33	500	k	k	1	588	2
115	D	34	650	l	l	1	470	1
115	D	35	1100	k	k	1	646	2
115	D	36	1100	j	j	1	561	3
115	D	37	500	l	l	1	420	1
115	D	38	800	b	b	1	522	5
115	D	39	650	h	h	1	508	4
115	D	40	950	b	b	1	530	5
115	D	41	1100	l	l	1	494	1
115	D	42	650	h	h	1	579	4
115	D	43	950	k	k	1	453	2
115	D	44	650	j	j	1	395	3
115	D	45	950	l	l	1	574	1
115	D	46	500	h	h	1	382	4
115	D	47	500	j	j	1	646	3
115	D	48	950	k	k	1	664	2
115	D	49	1100	b	b	1	490	5
115	D	50	800	j	j	1	464	3
116	A	1	950	k	k	1	536	4
116	A	2	800	h	h	1	786	2
116	A	3	950	b	b	1	1079	1
116	A	4	500	k	k	1	745	4
116	A	5	1100	l	l	1	749	5
116	A	6	500	h	h	1	639	2
116	A	7	650	b	b	1	661	1
116	A	8	1100	h	h	1	646	2
116	A	9	1100	j	j	1	784	3
116	A	10	500	b	b	1	782	1
116	A	11	800	l	l	1	576	5
116	A	12	650	k	k	1	719	4
116	A	13	950	l	l	1	571	5
116	A	14	1100	b	b	1	712	1
116	A	15	650	k	k	1	574	4
116	A	16	950	h	h	1	549	2
116	A	17	650	j	j	1	1438	3
116	A	18	650	l	l	1	516	5
116	A	19	650	j	j	1	883	3
116	A	20	950	k	k	1	552	4
116	A	21	800	j	j	1	625	3
116	A	22	1100	b	b	1	822	1
116	A	23	800	k	k	1	802	4
116	A	24	950	h	h	1	700	2
116	A	25	1100	l	l	1	613	5
116	A	26	800	j	l	0	422	3
116	A	27	1100	h	h	1	1124	2
116	A	28	500	j	j	1	1029	3
116	A	29	500	h	h	1	747	2
116	A	30	500	l	l	1	734	5
116	A	31	1100	k	k	1	1030	4
116	A	32	650	b	b	1	758	1
116	A	33	950	j	j	1	694	3
116	A	34	800	l	l	1	632	5
116	A	35	950	b	b	1	653	1
116	A	36	1100	k	k	1	700	4
116	A	37	1100	j	j	1	527	3
116	A	38	950	l	l	1	804	5
116	A	39	500	k	k	1	589	4
116	A	40	500	b	b	1	878	1
116	A	41	650	h	h	1	658	2
116	A	42	800	b	b	1	689	1
116	A	43	500	l	l	1	1218	5
116	A	44	650	h	h	1	671	2
116	A	45	800	k	k	1	760	4
116	A	46	800	b	b	1	1048	1
116	A	47	950	j	j	1	955	3
116	A	48	800	h	h	1	463	2
116	A	49	650	l	l	1	687	5
116	A	50	500	j	j	1	756	3
116	B	1	950	j	j	1	449	3
116	B	2	800	l	l	1	473	1
116	B	3	800	h	h	1	598	4
116	B	4	650	k	k	1	3100	2
116	B	5	500	b	b	1	649	5
116	B	6	800	l	l	1	474	1
116	B	7	650	k	k	1	804	2
116	B	8	500	l	l	1	1003	1
116	B	9	500	h	h	1	842	4
116	B	10	950	b	b	1	694	5
116	B	11	1100	j	j	1	657	3
116	B	12	1100	h	h	1	664	4
116	B	13	950	l	l	1	574	1
116	B	14	800	b	b	1	744	5
116	B	15	950	j	j	1	368	3
116	B	16	650	l	l	1	601	1
116	B	17	1100	h	h	1	660	4
116	B	18	500	b	b	1	1087	5
116	B	19	500	k	k	1	1094	2
116	B	20	950	h	h	1	643	4
116	B	21	500	j	j	1	826	3
116	B	22	1100	k	k	1	963	2
116	B	23	800	j	j	1	1179	3
116	B	24	800	h	h	1	713	4
116	B	25	1100	l	l	1	951	1
116	B	26	500	j	j	1	608	3
116	B	27	650	b	b	1	764	5
116	B	28	800	k	k	1	841	2
116	B	29	650	j	j	1	535	3
116	B	30	650	b	b	1	635	5
116	B	31	650	j	j	1	584	3
116	B	32	950	k	k	1	1216	2
116	B	33	650	h	h	1	665	4
116	B	34	1100	l	l	1	1018	1
116	B	35	950	b	b	1	796	5
116	B	36	650	h	h	1	686	4
116	B	37	800	b	b	1	740	5
116	B	38	500	l	l	1	823	1
116	B	39	1100	j	j	1	375	3
116	B	40	1100	k	k	1	739	2
116	B	41	650	l	l	1	821	1
116	B	42	500	k	k	1	528	2
116	B	43	1100	b	b	1	837	5
116	B	44	500	h	h	1	773	4
116	B	45	950	l	l	1	681	1
116	B	46	800	k	k	1	754	2
116	B	47	950	h	h	1	596	4
116	B	48	800	j	j	1	539	3
116	B	49	1100	b	b	1	617	5
116	B	50	950	k	k	1	687	2
116	C	1	800	j	j	1	637	3
116	C	2	1100	l	l	1	623	5
116	C	3	950	h	h	1	828	2
116	C	4	500	j	j	1	465	3
116	C	5	500	k	k	1	645	4
116	C	6	950	b	b	1	592	1
116	C	7	650	j	j	1	598	3
116	C	8	950	h	h	1	586	2
116	C	9	650	k	k	1	1170	4
116	C	10	1100	b	b	1	1000	1
116	C	11	950	l	l	1	1072	5
116	C	12	650	k	k	1	1224	4
116	C	13	800	l	l	1	596	5
116	C	14	500	b	b	1	1432	1
116	C	15	1100	j	j	1	546	3
116	C	16	1100	h	h	1	562	2
116	C	17	650	b	b	1	671	1
116	C	18	500	h	h	1	601	2
116	C	19	1100	l	l	1	611	5
116	C	20	800	h	h	1	926	2
116	C	21	950	k	k	1	1068	4
116	C	22	950	j	j	1	1013	3
116	C	23	800	b	b	1	936	1
116	C	24	800	k	k	1	800	4
116	C	25	650	h	h	1	560	2
116	C	26	500	l	l	1	598	5
116	C	27	800	b	b	1	763	1
116	C	28	650	h	h	1	595	2
116	C	29	500	b	h	0	1123	1
116	C	30	500	k	k	1	892	4
116	C	31	950	l	l	1	787	5
116	C	32	1100	j	j	1	545	3
116	C	33	1100	k	k	1	697	4
116	C	34	950	b	b	1	692	1
116	C	35	800	l	l	1	553	5
116	C	36	950	j	j	1	1012	3
116	C	37	650	b	b	1	775	1
116	C	38	1100	k	k	1	934	4
116	C	39	500	l	l	1	851	5
116	C	40	500	h	h	1	550	2
116	C	41	950	k	k	1	964	4
116	C	42	500	j	j	1	699	3
116	C	43	1100	h	h	1	621	2
116	C	44	800	j	j	1	1214	3
116	C	45	800	k	k	1	799	4
116	C	46	1100	b	b	1	590	1
116	C	47	650	l	l	1	564	5
116	C	48	800	h	h	1	384	2
116	C	49	650	j	j	1	353	3
116	C	50	650	l	l	1	514	5
116	D	1	650	b	b	1	741	5
116	D	2	650	j	j	1	1141	3
116	D	3	800	k	k	1	639	2
116	D	4	650	b	b	1	620	5
116	D	5	1100	l	l	1	630	1
116	D	6	800	h	h	1	830	4
116	D	7	800	j	j	1	462	3
116	D	8	1100	k	k	1	655	2
116	D	9	500	j	j	1	704	3
116	D	10	950	h	h	1	899	4
116	D	11	500	k	k	1	572	2
116	D	12	500	b	b	1	720	5
116	D	13	1100	h	h	1	828	4
116	D	14	650	l	l	1	517	1
116	D	15	950	j	j	1	669	3
116	D	16	800	b	b	1	687	5
116	D	17	950	l	l	1	653	1
116	D	18	1100	h	h	1	797	4
116	D	19	1100	j	j	1	422	3
116	D	20	950	b	b	1	1016	5
116	D	21	500	h	h	1	981	4
116	D	22	500	l	l	1	756	1
116	D	23	650	k	k	1	546	2
116	D	24	800	l	l	1	599	1
116	D	25	500	b	b	1	865	5
116	D	26	650	k	k	1	576	2
116	D	27	800	h	h	1	1221	4
116	D	28	800	l	l	1	671	1
116	D	29	950	j	j	1	785	3
116	D	30	950	h	h	1	837	4
116	D	31	800	k	k	1	625	2
116	D	32	1100	b	b	1	811	5
116	D	33	500	k	k	1	468	2
116	D	34	650	l	l	1	1218	1
116	D	35	1100	k	k	1	714	2
116	D	36	1100	j	j	1	1230	3
116	D	37	500	l	l	1	656	1
116	D	38	800	b	b	1	652	5
116	D	39	650	h	h	1	731	4
116	D	40	950	b	b	1	989	5
116	D	41	1100	l	l	1	595	1
116	D	42	650	h	h	1	945	4
116	D	43	950	k	k	1	638	2
116	D	44	650	j	j	1	585	3
116	D	45	950	l	l	1	567	1
116	D	46	500	h	h	1	719	4
116	D	47	500	j	j	1	425	3
116	D	48	950	k	k	1	554	2
116	D	49	1100	b	b	1	685	5
116	D	50	800	j	j	1	760	3
117	A	1	950	k	k	1	656	4
117	A	2	800	h	h	1	568	2
117	A	3	950	b	b	1	841	1
117	A	4	500	k	k	1	611	4
117	A	5	1100	l	l	1	435	5
117	A	6	500	h	h	1	534	2
117	A	7	650	b	b	1	432	1
117	A	8	1100	h	h	1	459	2
117	A	9	1100	j	j	1	534	3
117	A	10	500	b	b	1	438	1
117	A	11	800	l	l	1	420	5
117	A	12	650	k	k	1	667	4
117	A	13	950	l	l	1	594	5
117	A	14	1100	b	b	1	430	1
117	A	15	650	k	k	1	656	4
117	A	16	950	h	h	1	705	2
117	A	17	650	j	j	1	550	3
117	A	18	650	l	l	1	484	5
117	A	19	650	j	h	0	595	3
117	A	20	950	k	k	1	544	4
117	A	21	800	j	j	1	402	3
117	A	22	1100	b	b	1	425	1
117	A	23	800	k	k	1	994	4
117	A	24	950	h	h	1	485	2
117	A	25	1100	l	l	1	481	5
117	A	26	800	j	j	1	465	3
117	A	27	1100	h	h	1	518	2
117	A	28	500	j	j	1	549	3
117	A	29	500	h	h	1	622	2
117	A	30	500	l	l	1	415	5
117	A	31	1100	k	k	1	714	4
117	A	32	650	b	b	1	1146	1
117	A	33	950	j	j	1	545	3
117	A	34	800	l	l	1	474	5
117	A	35	950	b	b	1	400	1
117	A	36	1100	k	k	1	697	4
117	A	37	1100	j	j	1	583	3
117	A	38	950	l	l	1	590	5
117	A	39	500	k	k	1	679	4
117	A	40	500	b	b	1	467	1
117	A	41	650	h	h	1	511	2
117	A	42	800	b	b	1	392	1
117	A	43	500	l	l	1	472	5
117	A	44	650	h	h	1	1216	2
117	A	45	800	k	k	1	592	4
117	A	46	800	b	b	1	538	1
117	A	47	950	j	j	1	484	3
117	A	48	800	h	h	1	632	2
117	A	49	650	l	l	1	447	5
117	A	50	500	j	j	1	463	3
117	B	1	950	j	j	1	583	3
117	B	2	800	l	l	1	413	1
117	B	3	800	h	h	1	1121	4
117	B	4	650	k	k	1	745	2
117	B	5	500	b	b	1	517	5
117	B	6	800	l	l	1	473	1
117	B	7	650	k	k	1	2098	2
117	B	8	500	l	l	1	510	1
117	B	9	500	h	h	1	1325	4
117	B	10	950	b	b	1	1020	5
117	B	11	1100	j	j	1	373	3
117	B	12	1100	h	h	1	1176	4
117	B	13	950	l	l	1	476	1
117	B	14	800	b	b	1	544	5
117	B	15	950	j	j	1	733	3
117	B	16	650	l	l	1	525	1
117	B	17	1100	h	h	1	642	4
117	B	18	500	b	b	1	495	5
117	B	19	500	k	k	1	2132	2
117	B	20	950	h	h	1	850	4
117	B	21	500	j	j	1	592	3
117	B	22	1100	k	k	1	725	2
117	B	23	800	j	h	0	496	3
117	B	24	800	h	h	1	509	4
117	B	25	1100	l	l	1	581	1
117	B	26	500	j	j	1	783	3
117	B	27	650	b	b	1	527	5
117	B	28	800	k	k	1	754	2
117	B	29	650	j	j	1	698	3
117	B	30	650	b	b	1	1607	5
117	B	31	650	j	j	1	522	3
117	B	32	950	k	k	1	1011	2
117	B	33	650	h	h	1	576	4
117	B	34	1100	l	l	1	478	1
117	B	35	950	b	b	1	979	5
117	B	36	650	h	h	1	683	4
117	B	37	800	b	b	1	636	5
117	B	38	500	l	l	1	482	1
117	B	39	1100	j	j	1	557	3
117	B	40	1100	k	k	1	716	2
117	B	41	650	l	l	1	460	1
117	B	42	500	k	k	1	422	2
117	B	43	1100	b	b	1	604	5
117	B	44	500	h	h	1	1056	4
117	B	45	950	l	l	1	442	1
117	B	46	800	k	k	1	705	2
117	B	47	950	h	h	1	1010	4
117	B	48	800	j	j	1	954	3
117	B	49	1100	b	b	1	771	5
117	B	50	950	k	k	1	698	2
117	C	1	800	j	j	1	576	3
117	C	2	1100	l	l	1	483	5
117	C	3	950	h	h	1	553	2
117	C	4	500	j	j	1	593	3
117	C	5	500	k	k	1	799	4
117	C	6	950	b	b	1	607	1
117	C	7	650	j	j	1	648	3
117	C	8	950	h	h	1	618	2
117	C	9	650	k	k	1	601	4
117	C	10	1100	b	b	1	1157	1
117	C	11	950	l	l	1	518	5
117	C	12	650	k	k	1	854	4
117	C	13	800	l	l	1	606	5
117	C	14	500	b	b	1	549	1
117	C	15	1100	j	j	1	539	3
117	C	16	1100	h	h	1	715	2
117	C	17	650	b	b	1	804	1
117	C	18	500	h	h	1	690	2
117	C	19	1100	l	l	1	462	5
117	C	20	800	h	h	1	501	2
117	C	21	950	k	k	1	596	4
117	C	22	950	j	j	1	776	3
117	C	23	800	b	b	1	559	1
117	C	24	800	k	k	1	843	4
117	C	25	650	h	h	1	585	2
117	C	26	500	l	l	1	435	5
117	C	27	800	b	b	1	481	1
117	C	28	650	h	h	1	641	2
117	C	29	500	b	b	1	912	1
117	C	30	500	k	k	1	656	4
117	C	31	950	l	l	1	451	5
117	C	32	1100	j	j	1	604	3
117	C	33	1100	k	l	0	665	4
117	C	34	950	b	b	1	1011	1
117	C	35	800	l	l	1	694	5
117	C	36	950	j	j	1	743	3
117	C	37	650	b	b	1	604	1
117	C	38	1100	k	k	1	622	4
117	C	39	500	l	l	1	490	5
117	C	40	500	h	h	1	664	2
117	C	41	950	k	k	1	826	4
117	C	42	500	j	j	1	558	3
117	C	43	1100	h	h	1	718	2
117	C	44	800	j	j	1	1099	3
117	C	45	800	k	k	1	712	4
117	C	46	1100	b	b	1	746	1
117	C	47	650	l	l	1	425	5
117	C	48	800	h	h	1	718	2
117	C	49	650	j	j	1	569	3
117	C	50	650	l	l	1	529	5
117	D	1	650	b	b	1	698	5
117	D	2	650	j	j	1	870	3
117	D	3	800	k	k	1	719	2
117	D	4	650	b	j	0	591	5
117	D	5	1100	l	l	1	661	1
117	D	6	800	h	h	1	689	4
117	D	7	800	j	j	1	1051	3
117	D	8	1100	k	k	1	632	2
117	D	9	500	j	j	1	1672	3
117	D	10	950	h	h	1	661	4
117	D	11	500	k	k	1	667	2
117	D	12	500	b	b	1	504	5
117	D	13	1100	h	h	1	978	4
117	D	14	650	l	l	1	656	1
117	D	15	950	j	j	1	552	3
117	D	16	800	b	b	1	760	5
117	D	17	950	l	l	1	777	1
117	D	18	1100	h	h	1	521	4
117	D	19	1100	j	j	1	699	3
117	D	20	950	b	b	1	644	5
117	D	21	500	h	h	1	589	4
117	D	22	500	l	l	1	595	1
117	D	23	650	k	k	1	697	2
117	D	24	800	l	l	1	676	1
117	D	25	500	b	b	1	596	5
117	D	26	650	k	k	1	488	2
117	D	27	800	h	h	1	938	4
117	D	28	800	l	l	1	600	1
117	D	29	950	j	j	1	541	3
117	D	30	950	h	h	1	558	4
117	D	31	800	k	k	1	513	2
117	D	32	1100	b	b	1	736	5
117	D	33	500	k	k	1	603	2
117	D	34	650	l	l	1	589	1
117	D	35	1100	k	k	1	712	2
117	D	36	1100	j	j	1	567	3
117	D	37	500	l	l	1	654	1
117	D	38	800	b	b	1	616	5
117	D	39	650	h	h	1	633	4
117	D	40	950	b	b	1	603	5
117	D	41	1100	l	l	1	661	1
117	D	42	650	h	h	1	841	4
117	D	43	950	k	k	1	717	2
117	D	44	650	j	j	1	985	3
117	D	45	950	l	l	1	900	1
117	D	46	500	h	h	1	725	4
117	D	47	500	j	j	1	677	3
117	D	48	950	k	k	1	573	2
117	D	49	1100	b	b	1	1443	5
117	D	50	800	j	j	1	682	3
118	A	1	950	k	k	1	561	4
118	A	2	800	h	h	1	532	2
118	A	3	950	b	b	1	448	1
118	A	4	500	k	k	1	674	4
118	A	5	1100	l	l	1	621	5
118	A	6	500	h	h	1	591	2
118	A	7	650	b	b	1	505	1
118	A	8	1100	h	h	1	378	2
118	A	9	1100	j	j	1	1588	3
118	A	10	500	b	b	1	364	1
118	A	11	800	l	l	1	479	5
118	A	12	650	k	k	1	465	4
118	A	13	950	l	l	1	506	5
118	A	14	1100	b	b	1	663	1
118	A	15	650	k	k	1	501	4
118	A	16	950	h	h	1	813	2
118	A	17	650	j	j	1	732	3
118	A	18	650	l	l	1	543	5
118	A	19	650	j	j	1	832	3
118	A	20	950	k	k	1	595	4
118	A	21	800	j	j	1	521	3
118	A	22	1100	b	b	1	459	1
118	A	23	800	k	k	1	609	4
118	A	24	950	h	h	1	564	2
118	A	25	1100	l	l	1	583	5
118	A	26	800	j	j	1	635	3
118	A	27	1100	h	h	1	830	2
118	A	28	500	j	j	1	1052	3
118	A	29	500	h	h	1	621	2
118	A	30	500	l	l	1	447	5
118	A	31	1100	k	k	1	575	4
118	A	32	650	b	b	1	522	1
118	A	33	950	j	k	0	475	3
118	A	34	800	l	l	1	587	5
118	A	35	950	b	b	1	518	1
118	A	36	1100	k	k	1	507	4
118	A	37	1100	j	j	1	586	3
118	A	38	950	l	l	1	630	5
118	A	39	500	k	k	1	583	4
118	A	40	500	b	b	1	498	1
118	A	41	650	h	h	1	545	2
118	A	42	800	b	b	1	608	1
118	A	43	500	l	l	1	475	5
118	A	44	650	h	h	1	761	2
118	A	45	800	k	k	1	596	4
118	A	46	800	b	b	1	439	1
118	A	47	950	j	j	1	547	3
118	A	48	800	h	h	1	682	2
118	A	49	650	l	l	1	662	5
118	A	50	500	j	j	1	610	3
118	B	1	950	j	j	1	472	3
118	B	2	800	l	l	1	579	1
118	B	3	800	h	h	1	544	4
118	B	4	650	k	k	1	362	2
118	B	5	500	b	b	1	635	5
118	B	6	800	l	l	1	488	1
118	B	7	650	k	k	1	500	2
118	B	8	500	l	l	1	595	1
118	B	9	500	h	h	1	434	4
118	B	10	950	b	b	1	644	5
118	B	11	1100	j	j	1	412	3
118	B	12	1100	h	h	1	709	4
118	B	13	950	l	l	1	496	1
118	B	14	800	b	b	1	608	5
118	B	15	950	j	j	1	575	3
118	B	16	650	l	l	1	515	1
118	B	17	1100	h	h	1	692	4
118	B	18	500	b	b	1	500	5
118	B	19	500	k	k	1	536	2
118	B	20	950	h	h	1	1027	4
118	B	21	500	j	j	1	589	3
118	B	22	1100	k	k	1	493	2
118	B	23	800	j	j	1	667	3
118	B	24	800	h	h	1	533	4
118	B	25	1100	l	l	1	464	1
118	B	26	500	j	j	1	699	3
118	B	27	650	b	b	1	789	5
118	B	28	800	k	k	1	620	2
118	B	29	650	j	j	1	420	3
118	B	30	650	b	b	1	855	5
118	B	31	650	j	j	1	776	3
118	B	32	950	k	k	1	652	2
118	B	33	650	h	h	1	536	4
118	B	34	1100	l	l	1	522	1
118	B	35	950	b	b	1	576	5
118	B	36	650	h	h	1	617	4
118	B	37	800	b	b	1	828	5
118	B	38	500	l	l	1	534	1
118	B	39	1100	j	j	1	687	3
118	B	40	1100	k	k	1	590	2
118	B	41	650	l	l	1	494	1
118	B	42	500	k	k	1	358	2
118	B	43	1100	b	b	1	565	5
118	B	44	500	h	h	1	560	4
118	B	45	950	l	l	1	454	1
118	B	46	800	k	k	1	509	2
118	B	47	950	h	h	1	1012	4
118	B	48	800	j	k	0	441	3
118	B	49	1100	b	b	1	799	5
118	B	50	950	k	k	1	399	2
118	C	1	800	j	j	1	873	3
118	C	2	1100	l	l	1	386	5
118	C	3	950	h	h	1	570	2
118	C	4	500	j	j	1	593	3
118	C	5	500	k	k	1	423	4
118	C	6	950	b	b	1	531	1
118	C	7	650	j	j	1	731	3
118	C	8	950	h	h	1	353	2
118	C	9	650	k	k	1	723	4
118	C	10	1100	b	b	1	831	1
118	C	11	950	l	l	1	971	5
118	C	12	650	k	k	1	470	4
118	C	13	800	l	l	1	629	5
118	C	14	500	b	b	1	541	1
118	C	15	1100	j	j	1	642	3
118	C	16	1100	h	h	1	558	2
118	C	17	650	b	b	1	697	1
118	C	18	500	h	h	1	1179	2
118	C	19	1100	l	l	1	863	5
118	C	20	800	h	h	1	719	2
118	C	21	950	k	k	1	589	4
118	C	22	950	j	j	1	401	3
118	C	23	800	b	b	1	532	1
118	C	24	800	k	k	1	680	4
118	C	25	650	h	h	1	581	2
118	C	26	500	l	l	1	723	5
118	C	27	800	b	b	1	535	1
118	C	28	650	h	h	1	388	2
118	C	29	500	b	b	1	517	1
118	C	30	500	k	k	1	578	4
118	C	31	950	l	l	1	529	5
118	C	32	1100	j	j	1	647	3
118	C	33	1100	k	k	1	723	4
118	C	34	950	b	b	1	709	1
118	C	35	800	l	l	1	562	5
118	C	36	950	j	j	1	716	3
118	C	37	650	b	b	1	428	1
118	C	38	1100	k	k	1	558	4
118	C	39	500	l	l	1	553	5
118	C	40	500	h	h	1	583	2
118	C	41	950	k	k	1	628	4
118	C	42	500	j	j	1	745	3
118	C	43	1100	h	h	1	560	2
118	C	44	800	j	j	1	516	3
118	C	45	800	k	k	1	593	4
118	C	46	1100	h	l	0	617	1
118	C	47	650	l	l	1	760	5
118	C	48	800	h	h	1	1325	2
118	C	49	650	j	j	1	535	3
118	C	50	650	l	l	1	479	5
118	D	1	650	b	b	1	523	5
118	D	2	650	j	j	1	633	3
118	D	3	800	k	k	1	622	2
118	D	4	650	b	b	1	448	5
118	D	5	1100	l	l	1	468	1
118	D	6	800	h	h	1	614	4
118	D	7	800	j	j	1	748	3
118	D	8	1100	k	k	1	628	2
118	D	9	500	j	j	1	774	3
118	D	10	950	h	h	1	771	4
118	D	11	500	k	k	1	562	2
118	D	12	500	b	b	1	563	5
118	D	13	1100	h	h	1	620	4
118	D	14	650	l	l	1	501	1
118	D	15	950	j	j	1	536	3
118	D	16	800	b	b	1	370	5
118	D	17	950	l	l	1	787	1
118	D	18	1100	h	h	1	621	4
118	D	19	1100	j	j	1	501	3
118	D	20	950	b	b	1	474	5
118	D	21	500	h	h	1	511	4
118	D	22	500	l	l	1	532	1
118	D	23	650	k	k	1	609	2
118	D	24	800	l	l	1	835	1
118	D	25	500	b	b	1	570	5
118	D	26	650	k	k	1	561	2
118	D	27	800	h	h	1	443	4
118	D	28	800	l	l	1	626	1
118	D	29	950	j	j	1	696	3
118	D	30	950	h	h	1	597	4
118	D	31	800	k	k	1	513	2
118	D	32	1100	b	h	0	525	5
118	D	33	500	k	k	1	511	2
118	D	34	650	l	l	1	665	1
118	D	35	1100	k	k	1	374	2
118	D	36	1100	j	k	0	454	3
118	D	37	500	l	l	1	543	1
118	D	38	800	b	b	1	551	5
118	D	39	650	h	h	1	528	4
118	D	40	950	b	b	1	525	5
118	D	41	1100	l	l	1	584	1
118	D	42	650	h	h	1	486	4
118	D	43	950	k	k	1	926	2
118	D	44	650	j	j	1	921	3
118	D	45	950	l	l	1	550	1
118	D	46	500	h	h	1	484	4
118	D	47	500	j	j	1	921	3
118	D	48	950	k	k	1	852	2
118	D	49	1100	b	b	1	533	5
118	D	50	800	j	j	1	929	3
119	A	1	950	k	k	1	1295	4
119	A	2	800	h	h	1	612	2
119	A	3	950	b	b	1	533	1
119	A	4	500	k	k	1	651	4
119	A	5	1100	l	l	1	480	5
119	A	6	500	h	h	1	705	2
119	A	7	650	b	b	1	477	1
119	A	8	1100	h	h	1	489	2
119	A	9	1100	j	j	1	598	3
119	A	10	500	b	b	1	435	1
119	A	11	800	l	l	1	448	5
119	A	12	650	k	k	1	772	4
119	A	13	950	l	l	1	614	5
119	A	14	1100	b	b	1	633	1
119	A	15	650	k	k	1	1110	4
119	A	16	950	h	h	1	573	2
119	A	17	650	j	j	1	544	3
119	A	18	650	l	l	1	532	5
119	A	19	650	j	j	1	511	3
119	A	20	950	k	k	1	504	4
119	A	21	800	j	j	1	661	3
119	A	22	1100	b	b	1	549	1
119	A	23	800	k	k	1	700	4
119	A	24	950	h	h	1	724	2
119	A	25	1100	l	l	1	699	5
119	A	26	800	j	j	1	456	3
119	A	27	1100	h	h	1	531	2
119	A	28	500	j	j	1	582	3
119	A	29	500	h	h	1	555	2
119	A	30	500	l	l	1	576	5
119	A	31	1100	k	k	1	581	4
119	A	32	650	b	h	0	482	1
119	A	33	950	j	j	1	731	3
119	A	34	800	l	l	1	578	5
119	A	35	950	b	b	1	1086	1
119	A	36	1100	k	k	1	457	4
119	A	37	1100	j	j	1	565	3
119	A	38	950	l	l	1	725	5
119	A	39	500	k	k	1	562	4
119	A	40	500	b	b	1	1362	1
119	A	41	650	h	h	1	560	2
119	A	42	800	b	b	1	692	1
119	A	43	500	l	l	1	851	5
119	A	44	650	h	h	1	458	2
119	A	45	800	k	k	1	786	4
119	A	46	800	b	b	1	466	1
119	A	47	950	j	j	1	539	3
119	A	48	800	h	h	1	649	2
119	A	49	650	l	l	1	602	5
119	A	50	500	j	j	1	551	3
119	B	1	950	j	j	1	619	3
119	B	2	800	l	l	1	471	1
119	B	3	800	h	h	1	789	4
119	B	4	650	k	k	1	508	2
119	B	5	500	b	b	1	982	5
119	B	6	800	l	l	1	604	1
119	B	7	650	k	k	1	388	2
119	B	8	500	l	l	1	616	1
119	B	9	500	h	h	1	630	4
119	B	10	950	b	b	1	616	5
119	B	11	1100	j	j	1	590	3
119	B	12	1100	h	h	1	807	4
119	B	13	950	l	l	1	673	1
119	B	14	800	b	b	1	659	5
119	B	15	950	j	j	1	855	3
119	B	16	650	l	l	1	594	1
119	B	17	1100	h	h	1	1054	4
119	B	18	500	b	b	1	691	5
119	B	19	500	k	k	1	572	2
119	B	20	950	h	h	1	762	4
119	B	21	500	j	j	1	621	3
119	B	22	1100	k	k	1	712	2
119	B	23	800	j	j	1	573	3
119	B	24	800	h	h	1	720	4
119	B	25	1100	l	l	1	828	1
119	B	26	500	j	k	0	616	3
119	B	27	650	b	b	1	858	5
119	B	28	800	k	k	1	809	2
119	B	29	650	j	j	1	596	3
119	B	30	650	b	b	1	702	5
119	B	31	650	j	j	1	456	3
119	B	32	950	k	k	1	645	2
119	B	33	650	h	b	0	948	4
119	B	34	1100	l	l	1	625	1
119	B	35	950	b	b	1	593	5
119	B	36	650	h	h	1	744	4
119	B	37	800	b	b	1	626	5
119	B	38	500	l	l	1	692	1
119	B	39	1100	j	j	1	516	3
119	B	40	1100	k	k	1	711	2
119	B	41	650	l	l	1	596	1
119	B	42	500	k	k	1	656	2
119	B	43	1100	b	b	1	646	5
119	B	44	500	h	h	1	816	4
119	B	45	950	l	l	1	622	1
119	B	46	800	k	k	1	947	2
119	B	47	950	h	h	1	709	4
119	B	48	800	j	j	1	615	3
119	B	49	1100	b	b	1	510	5
119	B	50	950	k	k	1	584	2
119	C	1	800	j	j	1	626	3
119	C	2	1100	l	l	1	597	5
119	C	3	950	h	h	1	506	2
119	C	4	500	j	j	1	572	3
119	C	5	500	k	k	1	763	4
119	C	6	950	b	b	1	967	1
119	C	7	650	j	j	1	744	3
119	C	8	950	h	h	1	558	2
119	C	9	650	k	k	1	991	4
119	C	10	1100	b	b	1	615	1
119	C	11	950	l	l	1	628	5
119	C	12	650	k	k	1	584	4
119	C	13	800	l	l	1	546	5
119	C	14	500	b	b	1	1185	1
119	C	15	1100	j	j	1	585	3
119	C	16	1100	h	h	1	510	2
119	C	17	650	b	b	1	707	1
119	C	18	500	h	h	1	650	2
119	C	19	1100	l	l	1	672	5
119	C	20	800	h	h	1	764	2
119	C	21	950	k	k	1	681	4
119	C	22	950	j	j	1	489	3
119	C	23	800	b	b	1	502	1
119	C	24	800	k	k	1	630	4
119	C	25	650	h	h	1	877	2
119	C	26	500	l	l	1	569	5
119	C	27	800	b	b	1	616	1
119	C	28	650	h	h	1	626	2
119	C	29	500	b	b	1	675	1
119	C	30	500	k	k	1	616	4
119	C	31	950	l	l	1	543	5
119	C	32	1100	j	j	1	717	3
119	C	33	1100	k	k	1	958	4
119	C	34	950	b	b	1	2878	1
119	C	35	800	l	l	1	779	5
119	C	36	950	j	j	1	796	3
119	C	37	650	b	b	1	687	1
119	C	38	1100	k	k	1	534	4
119	C	39	500	l	j	0	592	5
119	C	40	500	h	h	1	710	2
119	C	41	950	k	k	1	1238	4
119	C	42	500	j	j	1	705	3
119	C	43	1100	h	j	0	458	2
119	C	44	800	j	j	1	730	3
119	C	45	800	k	k	1	582	4
119	C	46	1100	b	b	1	757	1
119	C	47	650	l	l	1	692	5
119	C	48	800	h	h	1	637	2
119	C	49	650	j	j	1	539	3
119	C	50	650	l	l	1	524	5
119	D	1	650	b	b	1	848	5
119	D	2	650	j	j	1	503	3
119	D	3	800	k	k	1	594	2
119	D	4	650	b	b	1	644	5
119	D	5	1100	l	l	1	722	1
119	D	6	800	h	h	1	1105	4
119	D	7	800	j	j	1	624	3
119	D	8	1100	k	k	1	574	2
119	D	9	500	j	j	1	627	3
119	D	10	950	h	h	1	727	4
119	D	11	500	k	k	1	1237	2
119	D	12	500	b	b	1	537	5
119	D	13	1100	h	h	1	683	4
119	D	14	650	l	k	0	686	1
119	D	15	950	j	j	1	843	3
119	D	16	800	b	b	1	749	5
119	D	17	950	l	l	1	521	1
119	D	18	1100	h	h	1	583	4
119	D	19	1100	j	j	1	524	3
119	D	20	950	b	b	1	729	5
119	D	21	500	h	h	1	548	4
119	D	22	500	l	l	1	566	1
119	D	23	650	k	k	1	624	2
119	D	24	800	l	l	1	628	1
119	D	25	500	b	b	1	695	5
119	D	26	650	k	k	1	790	2
119	D	27	800	h	h	1	590	4
119	D	28	800	l	l	1	674	1
119	D	29	950	j	j	1	605	3
119	D	30	950	h	h	1	736	4
119	D	31	800	k	k	1	793	2
119	D	32	1100	b	b	1	654	5
119	D	33	500	k	k	1	812	2
119	D	34	650	l	l	1	584	1
119	D	35	1100	k	k	1	655	2
119	D	36	1100	j	j	1	539	3
119	D	37	500	l	l	1	787	1
119	D	38	800	b	b	1	715	5
119	D	39	650	h	h	1	635	4
119	D	40	950	b	b	1	594	5
119	D	41	1100	l	l	1	686	1
119	D	42	650	h	h	1	840	4
119	D	43	950	k	k	1	812	2
119	D	44	650	j	j	1	557	3
119	D	45	950	l	l	1	727	1
119	D	46	500	h	h	1	1503	4
119	D	47	500	j	j	1	855	3
119	D	48	950	k	k	1	632	2
119	D	49	1100	b	b	1	563	5
119	D	50	800	j	j	1	524	3
