Subject	Mapping	Trial	Interval	CorrectResponse	Given Response	Accuracy	RT	Stimulus
201	A	1	950	k	k	1	705	Four
201	A	2	800	h	h	1	620	Two
201	A	3	950	b	b	1	446	One
201	A	4	500	k	k	1	652	Four
201	A	5	1100	l	l	1	537	Five
201	A	6	500	h	h	1	625	Two
201	A	7	650	b	b	1	566	One
201	A	8	1100	j	j	1	980	Three
201	A	9	800	l	l	1	574	Five
201	A	10	1100	h	h	1	630	Two
201	A	11	500	b	b	1	601	One
201	A	12	650	k	k	1	692	Four
201	A	13	950	l	l	1	588	Five
201	A	14	1100	b	b	1	566	One
201	A	15	650	k	k	1	689	Four
201	A	16	950	h	h	1	865	Two
201	A	17	650	j	k	0	646	Three
201	A	18	650	l	l	1	705	Five
201	A	19	650	j	j	1	767	Three
201	A	20	950	k	k	1	607	Four
201	A	21	800	j	j	1	695	Three
201	A	22	1100	b	b	1	470	One
201	A	23	800	k	k	1	796	Four
201	A	24	950	h	h	1	600	Two
201	A	25	1100	l	l	1	606	Five
201	A	26	800	j	j	1	982	Three
201	A	27	1100	h	h	1	398	Two
201	A	28	500	j	j	1	824	Three
201	A	29	500	h	h	1	496	Two
201	A	30	500	l	l	1	640	Five
201	A	31	1100	k	k	1	814	Four
201	A	32	650	b	b	1	563	One
201	A	33	950	j	j	1	995	Three
201	A	34	800	l	l	1	656	Five
201	A	35	950	b	b	1	563	One
201	A	36	1100	k	k	1	656	Four
201	A	37	1100	j	j	1	752	Three
201	A	38	950	l	l	1	598	Five
201	A	39	500	k	k	1	832	Four
201	A	40	500	b	b	1	515	One
201	A	41	650	h	h	1	491	Two
201	A	42	800	b	b	1	555	One
201	A	43	500	l	l	1	702	Five
201	A	44	650	h	h	1	627	Two
201	A	45	800	k	k	1	848	Four
201	A	46	800	b	b	1	672	One
201	A	47	950	j	j	1	838	Three
201	A	48	800	h	h	1	603	Two
201	A	49	650	l	l	1	638	Five
201	A	50	500	j	j	1	856	Three
201	B	1	650	b	b	1	538	Five
201	B	2	650	j	j	1	2039	Three
201	B	3	800	k	j	0	701	Two
201	B	4	650	b	b	1	589	Five
201	B	5	1100	l	l	1	722	One
201	B	6	800	h	h	1	722	Four
201	B	7	800	j	j	1	733	Three
201	B	8	1100	k	k	1	698	Two
201	B	9	500	j	j	1	629	Three
201	B	10	950	h	h	1	759	Four
201	B	11	500	k	k	1	385	Two
201	B	12	500	b	b	1	637	Five
201	B	13	1100	h	h	1	653	Four
201	B	14	650	l	l	1	938	One
201	B	15	950	j	j	1	1118	Three
201	B	16	800	b	b	1	590	Five
201	B	17	950	l	l	1	655	One
201	B	18	1100	h	h	1	865	Four
201	B	19	1100	j	j	1	692	Three
201	B	20	950	b	b	1	702	Five
201	B	21	500	h	h	1	612	Four
201	B	22	500	l	l	1	614	One
201	B	23	650	k	k	1	622	Two
201	B	24	800	l	l	1	1564	One
201	B	25	500	b	b	1	505	Five
201	B	26	650	k	k	1	988	Two
201	B	27	800	h	h	1	628	Four
201	B	28	800	l	l	1	545	One
201	B	29	950	j	j	1	657	Three
201	B	30	950	h	h	1	561	Four
201	B	31	800	k	k	1	894	Two
201	B	32	1100	b	b	1	713	Five
201	B	33	500	k	k	1	447	Two
201	B	34	650	l	l	1	580	One
201	B	35	1100	k	k	1	855	Two
201	B	36	1100	j	j	1	815	Three
201	B	37	500	l	l	1	601	One
201	B	38	800	b	b	1	641	Five
201	B	39	650	h	h	1	665	Four
201	B	40	950	b	b	1	788	Five
201	B	41	1100	l	l	1	604	One
201	B	42	650	h	h	1	785	Four
201	B	43	950	k	k	1	1471	Two
201	B	44	650	j	j	1	1001	Three
201	B	45	950	l	l	1	761	One
201	B	46	500	h	h	1	825	Four
201	B	47	500	j	j	1	1068	Three
201	B	48	950	k	k	1	681	Two
201	B	49	1100	b	b	1	644	Five
201	B	50	800	j	j	1	708	Three
201	C	1	950	j	j	1	667	Three
201	C	2	800	l	l	1	584	One
201	C	3	800	h	h	1	691	Four
201	C	4	650	k	k	1	765	Two
201	C	5	500	b	b	1	651	Five
201	C	6	800	l	l	1	1755	One
201	C	7	650	k	k	1	523	Two
201	C	8	500	l	l	1	592	One
201	C	9	500	h	h	1	739	Four
201	C	10	950	b	b	1	677	Five
201	C	11	1100	j	j	1	1304	Three
201	C	12	1100	h	h	1	528	Four
201	C	13	950	l	l	1	504	One
201	C	14	800	b	b	1	563	Five
201	C	15	950	j	j	1	1011	Three
201	C	16	650	l	l	1	518	One
201	C	17	1100	h	h	1	744	Four
201	C	18	500	b	b	1	632	Five
201	C	19	500	k	k	1	691	Two
201	C	20	950	h	h	1	891	Four
201	C	21	500	j	j	1	1432	Three
201	C	22	1100	k	k	1	403	Two
201	C	23	800	j	h	0	683	Three
201	C	24	800	h	h	1	723	Four
201	C	25	1100	l	l	1	528	One
201	C	26	500	j	j	1	422	Three
201	C	27	650	b	b	1	659	Five
201	C	28	800	k	k	1	726	Two
201	C	29	650	j	j	1	744	Three
201	C	30	650	b	b	1	630	Five
201	C	31	650	j	j	1	926	Three
201	C	32	950	k	k	1	302	Two
201	C	33	650	h	h	1	675	Four
201	C	34	1100	l	l	1	590	One
201	C	35	950	b	b	1	1011	Five
201	C	36	650	h	h	1	798	Four
201	C	37	800	b	b	1	619	Five
201	C	38	500	l	l	1	555	One
201	C	39	1100	j	j	1	854	Three
201	C	40	1100	k	k	1	547	Two
201	C	41	650	l	l	1	512	One
201	C	42	500	k	k	1	587	Two
201	C	43	1100	b	b	1	603	Five
201	C	44	500	h	h	1	824	Four
201	C	45	950	l	l	1	931	One
201	C	46	800	k	k	1	555	Two
201	C	47	950	h	h	1	632	Four
201	C	48	800	j	j	1	398	Three
201	C	49	1100	b	b	1	624	Five
201	C	50	950	k	k	1	779	Two
201	D	1	800	j	j	1	638	Three
201	D	2	1100	l	l	1	585	Five
201	D	3	950	h	h	1	1052	Two
201	D	4	500	j	j	1	641	Three
201	D	5	500	k	k	1	668	Four
201	D	6	950	b	b	1	545	One
201	D	7	650	j	j	1	854	Three
201	D	8	950	h	h	1	374	Two
201	D	9	650	k	k	1	681	Four
201	D	10	1100	b	b	1	579	One
201	D	11	950	l	l	1	710	Five
201	D	12	650	k	k	1	1648	Four
201	D	13	800	l	l	1	976	Five
201	D	14	500	b	b	1	632	One
201	D	15	1100	j	j	1	621	Three
201	D	16	1100	h	h	1	1118	Two
201	D	17	650	b	b	1	544	One
201	D	18	500	h	h	1	422	Two
201	D	19	1100	l	l	1	640	Five
201	D	20	800	h	h	1	787	Two
201	D	21	950	k	k	1	699	Four
201	D	22	950	j	j	1	731	Three
201	D	23	800	b	b	1	696	One
201	D	24	800	k	k	1	656	Four
201	D	25	650	h	h	1	867	Two
201	D	26	500	l	l	1	531	Five
201	D	27	800	b	b	1	675	One
201	D	28	650	h	h	1	1771	Two
201	D	29	500	b	b	1	702	One
201	D	30	500	k	k	1	696	Four
201	D	31	950	l	l	1	1128	Five
201	D	32	1100	j	j	1	1120	Three
201	D	33	1100	k	k	1	624	Four
201	D	34	950	b	b	1	584	One
201	D	35	800	l	l	1	606	Five
201	D	36	950	j	j	1	643	Three
201	D	37	650	b	b	1	544	One
201	D	38	1100	k	k	1	371	Four
201	D	39	500	l	l	1	675	Five
201	D	40	500	h	h	1	846	Two
201	D	41	950	k	k	1	702	Four
201	D	42	500	j	j	1	635	Three
201	D	43	1100	h	h	1	720	Two
201	D	44	800	j	j	1	931	Three
201	D	45	800	k	k	1	819	Four
201	D	46	1100	b	b	1	632	One
201	D	47	650	l	l	1	611	Five
201	D	48	800	h	h	1	1347	Two
201	D	49	650	j	j	1	1033	Three
201	D	50	650	l	l	1	774	Five
201	E	1	950	j	j	1	715	Three
201	E	2	800	b	b	1	704	One
201	E	3	800	k	k	1	603	Four
201	E	4	650	h	h	1	1126	Two
201	E	5	500	l	l	1	651	Five
201	E	6	800	b	b	1	443	One
201	E	7	650	h	h	1	742	Two
201	E	8	500	b	b	1	566	One
201	E	9	500	k	k	1	659	Four
201	E	10	950	l	l	1	486	Five
201	E	11	1100	j	j	1	347	Three
201	E	12	1100	k	k	1	550	Four
201	E	13	950	b	b	1	523	One
201	E	14	800	l	l	1	467	Five
201	E	15	950	j	j	1	441	Three
201	E	16	650	b	b	1	579	One
201	E	17	1100	k	k	1	339	Four
201	E	18	500	l	l	1	555	Five
201	E	19	500	h	b	0	590	Two
201	E	20	950	k	k	1	931	Four
201	E	21	500	j	j	1	641	Three
201	E	22	1100	h	h	1	550	Two
201	E	23	800	j	j	1	595	Three
201	E	24	800	k	j	0	545	Four
201	E	25	1100	b	b	1	721	One
201	E	26	500	j	j	1	598	Three
201	E	27	650	l	l	1	550	Five
201	E	28	800	h	h	1	651	Two
201	E	29	650	j	j	1	678	Three
201	E	30	650	l	l	1	574	Five
201	E	31	650	j	j	1	883	Three
201	E	32	950	h	h	1	707	Two
201	E	33	650	k	k	1	546	Four
201	E	34	1100	b	b	1	717	One
201	E	35	950	l	l	1	682	Five
201	E	36	650	k	k	1	845	Four
201	E	37	800	l	l	1	517	Five
201	E	38	500	b	b	1	696	One
201	E	39	1100	j	j	1	744	Three
201	E	40	1100	h	h	1	584	Two
201	E	41	650	b	b	1	461	One
201	E	42	500	h	h	1	477	Two
201	E	43	1100	l	l	1	560	Five
201	E	44	500	k	k	1	595	Four
201	E	45	950	b	b	1	544	One
201	E	46	800	h	h	1	667	Two
201	E	47	950	k	k	1	629	Four
201	E	48	800	j	h	0	595	Three
201	E	49	1100	l	l	1	525	Five
201	E	50	950	h	h	1	629	Two
201	F	1	950	h	h	1	664	Four
201	F	2	800	k	k	1	1328	Two
201	F	3	950	l	l	1	627	One
201	F	4	500	h	h	1	619	Four
201	F	5	1100	b	b	1	680	Five
201	F	6	500	k	k	1	675	Two
201	F	7	650	l	l	1	483	One
201	F	8	1100	k	k	1	1027	Two
201	F	9	1100	j	j	1	576	Three
201	F	10	500	l	l	1	742	One
201	F	11	800	b	b	1	1451	Five
201	F	12	650	h	h	1	758	Four
201	F	13	950	b	b	1	667	Five
201	F	14	1100	l	l	1	867	One
201	F	15	650	h	h	1	1075	Four
201	F	16	950	k	k	1	1150	Two
201	F	17	650	j	j	1	550	Three
201	F	18	650	b	b	1	920	Five
201	F	19	650	j	j	1	691	Three
201	F	20	950	h	h	1	979	Four
201	F	21	800	j	j	1	766	Three
201	F	22	1100	l	l	1	1504	One
201	F	23	800	h	h	1	502	Four
201	F	24	950	k	k	1	776	Two
201	F	25	1100	b	b	1	729	Five
201	F	26	800	j	j	1	2200	Three
201	F	27	1100	k	k	1	665	Two
201	F	28	500	j	j	1	307	Three
201	F	29	500	k	h	0	401	Two
201	F	30	500	b	b	1	313	Five
201	F	31	1100	h	h	1	558	Four
201	F	32	650	l	l	1	553	One
201	F	33	950	j	j	1	761	Three
201	F	34	800	b	b	1	734	Five
201	F	35	950	l	l	1	502	One
201	F	36	1100	h	h	1	627	Four
201	F	37	1100	j	j	1	653	Three
201	F	38	950	b	b	1	811	Five
201	F	39	500	h	h	1	674	Four
201	F	40	500	l	l	1	579	One
201	F	41	650	k	k	1	584	Two
201	F	42	800	l	l	1	593	One
201	F	43	500	b	h	0	392	Five
201	F	44	650	k	k	1	698	Two
201	F	45	800	h	h	1	669	Four
201	F	46	800	l	l	1	560	One
201	F	47	950	j	j	1	493	Three
201	F	48	800	k	k	1	493	Two
201	F	49	650	b	b	1	512	Five
201	F	50	500	j	j	1	352	Three
201	G	1	800	j	j	1	417	Three
201	G	2	1100	b	b	1	641	Five
201	G	3	950	k	k	1	697	Two
201	G	4	500	j	j	1	575	Three
201	G	5	500	h	h	1	636	Four
201	G	6	950	l	l	1	580	One
201	G	7	650	j	j	1	695	Three
201	G	8	950	k	k	1	743	Two
201	G	9	650	h	h	1	564	Four
201	G	10	1100	l	l	1	652	One
201	G	11	950	b	b	1	591	Five
201	G	12	650	h	h	1	343	Four
201	G	13	800	b	b	1	481	Five
201	G	14	500	l	l	1	713	One
201	G	15	1100	j	j	1	388	Three
201	G	16	1100	k	k	1	665	Two
201	G	17	650	l	l	1	463	One
201	G	18	500	k	k	1	951	Two
201	G	19	1100	b	b	1	612	Five
201	G	20	800	k	k	1	1196	Two
201	G	21	950	h	h	1	700	Four
201	G	22	950	j	j	1	714	Three
201	G	23	800	l	l	1	471	One
201	G	24	800	h	h	1	377	Four
201	G	25	650	k	k	1	444	Two
201	G	26	500	b	b	1	655	Five
201	G	27	800	l	l	1	428	One
201	G	28	650	k	k	1	498	Two
201	G	29	500	l	l	1	1132	One
201	G	30	500	h	h	1	604	Four
201	G	31	950	b	b	1	626	Five
201	G	32	1100	j	j	1	746	Three
201	G	33	1100	h	h	1	570	Four
201	G	34	950	l	l	1	714	One
201	G	35	800	b	b	1	559	Five
201	G	36	950	j	j	1	794	Three
201	G	37	650	l	l	1	604	One
201	G	38	1100	h	h	1	570	Four
201	G	39	500	b	b	1	634	Five
201	G	40	500	k	k	1	706	Two
201	G	41	950	h	h	1	644	Four
201	G	42	500	j	j	1	383	Three
201	G	43	1100	k	k	1	959	Two
201	G	44	800	j	j	1	644	Three
201	G	45	800	h	h	1	652	Four
201	G	46	1100	l	l	1	644	One
201	G	47	650	b	b	1	658	Five
201	G	48	800	k	k	1	636	Two
201	G	49	650	j	j	1	673	Three
201	G	50	650	b	b	1	643	Five
201	H	1	650	l	l	1	525	Five
201	H	2	650	j	j	1	599	Three
201	H	3	800	h	h	1	613	Two
201	H	4	650	l	l	1	663	Five
201	H	5	1100	b	b	1	535	One
201	H	6	800	k	k	1	594	Four
201	H	7	800	j	j	1	383	Three
201	H	8	1100	h	h	1	351	Two
201	H	9	500	j	k	0	786	Three
201	H	10	950	k	k	1	445	Four
201	H	11	500	h	h	1	746	Two
201	H	12	500	l	l	1	490	Five
201	H	13	1100	k	k	1	719	Four
201	H	14	650	b	b	1	638	One
201	H	15	950	j	j	1	572	Three
201	H	16	800	l	l	1	588	Five
201	H	17	950	b	h	0	721	One
201	H	18	1100	k	k	1	974	Four
201	H	19	1100	j	j	1	662	Three
201	H	20	950	l	l	1	777	Five
201	H	21	500	k	k	1	753	Four
201	H	22	500	b	b	1	620	One
201	H	23	650	h	h	1	409	Two
201	H	24	800	b	b	1	577	One
201	H	25	500	l	l	1	665	Five
201	H	26	650	h	h	1	814	Two
201	H	27	800	k	k	1	1425	Four
201	H	28	800	b	b	1	572	One
201	H	29	950	j	j	1	740	Three
201	H	30	950	k	k	1	598	Four
201	H	31	800	h	j	0	796	Two
201	H	32	1100	l	l	1	647	Five
201	H	33	500	h	h	1	668	Two
201	H	34	650	b	b	1	660	One
201	H	35	1100	h	h	1	468	Two
201	H	36	1100	j	j	1	575	Three
201	H	37	500	b	b	1	575	One
201	H	38	800	l	l	1	609	Five
201	H	39	650	k	k	1	692	Four
201	H	40	950	l	l	1	644	Five
201	H	41	1100	b	b	1	793	One
201	H	42	650	k	k	1	793	Four
201	H	43	950	h	h	1	1231	Two
201	H	44	650	j	j	1	951	Three
201	H	45	950	b	b	1	1012	One
201	H	46	500	k	k	1	1417	Four
201	H	47	500	j	j	1	665	Three
201	H	48	950	h	h	1	764	Two
201	H	49	1100	l	l	1	665	Five
201	H	50	800	j	j	1	828	Three
203	A	1	950	k	k	1	352	Four
203	A	2	800	h	h	1	347	Two
203	A	3	950	b	b	1	669	One
203	A	4	500	k	k	1	459	Four
203	A	5	1100	l	l	1	1051	Five
203	A	6	500	h	h	1	461	Two
203	A	7	650	b	b	1	539	One
203	A	8	1100	j	j	1	893	Three
203	A	9	800	l	l	1	525	Five
203	A	10	1100	h	h	1	659	Two
203	A	11	500	b	b	1	512	One
203	A	12	650	k	k	1	368	Four
203	A	13	950	l	l	1	464	Five
203	A	14	1100	b	b	1	512	One
203	A	15	650	k	k	1	482	Four
203	A	16	950	h	h	1	419	Two
203	A	17	650	j	j	1	1043	Three
203	A	18	650	l	l	1	610	Five
203	A	19	650	j	k	0	1405	Three
203	A	20	950	k	k	1	812	Four
203	A	21	800	j	j	1	539	Three
203	A	22	1100	b	b	1	711	One
203	A	23	800	k	k	1	756	Four
203	A	24	950	h	h	1	602	Two
203	A	25	1100	l	l	1	647	Five
203	A	26	800	j	j	1	394	Three
203	A	27	1100	h	h	1	575	Two
203	A	28	500	j	j	1	1212	Three
203	A	29	500	h	h	1	652	Two
203	A	30	500	l	l	1	594	Five
203	A	31	1100	k	k	1	722	Four
203	A	32	650	b	b	1	823	One
203	A	33	950	j	j	1	1282	Three
203	A	34	800	l	l	1	583	Five
203	A	35	950	b	b	1	554	One
203	A	36	1100	k	k	1	548	Four
203	A	37	1100	j	j	1	663	Three
203	A	38	950	l	l	1	575	Five
203	A	39	500	k	k	1	770	Four
203	A	40	500	b	b	1	554	One
203	A	41	650	h	h	1	823	Two
203	A	42	800	b	b	1	540	One
203	A	43	500	l	l	1	527	Five
203	A	44	650	h	h	1	447	Two
203	A	45	800	k	k	1	607	Four
203	A	46	800	b	b	1	573	One
203	A	47	950	j	j	1	687	Three
203	A	48	800	h	h	1	591	Two
203	A	49	650	l	l	1	538	Five
203	A	50	500	j	j	1	847	Three
203	B	1	650	b	b	1	927	Five
203	B	2	650	j	j	1	1017	Three
203	B	3	800	k	k	1	636	Two
203	B	4	650	b	b	1	796	Five
203	B	5	1100	l	l	1	607	One
203	B	6	800	h	h	1	959	Four
203	B	7	800	j	j	1	820	Three
203	B	8	1100	k	k	1	444	Two
203	B	9	500	j	j	1	1257	Three
203	B	10	950	h	h	1	484	Four
203	B	11	500	k	k	1	929	Two
203	B	12	500	b	b	1	703	Five
203	B	13	1100	h	h	1	951	Four
203	B	14	650	l	l	1	607	One
203	B	15	950	j	j	1	799	Three
203	B	16	800	b	b	1	612	Five
203	B	17	950	l	l	1	540	One
203	B	18	1100	h	h	1	1244	Four
203	B	19	1100	j	j	1	809	Three
203	B	20	950	b	b	1	601	Five
203	B	21	500	h	h	1	1103	Four
203	B	22	500	l	l	1	567	One
203	B	23	650	k	k	1	729	Two
203	B	24	800	l	l	1	497	One
203	B	25	500	b	b	1	714	Five
203	B	26	650	k	k	1	681	Two
203	B	27	800	h	h	1	721	Four
203	B	28	800	l	l	1	561	One
203	B	29	950	j	j	1	929	Three
203	B	30	950	h	h	1	1009	Four
203	B	31	800	k	k	1	745	Two
203	B	32	1100	b	b	1	585	Five
203	B	33	500	k	k	1	641	Two
203	B	34	650	l	l	1	587	One
203	B	35	1100	k	k	1	494	Two
203	B	36	1100	j	j	1	742	Three
203	B	37	500	l	l	1	582	One
203	B	38	800	b	b	1	617	Five
203	B	39	650	h	h	1	678	Four
203	B	40	950	b	b	1	635	Five
203	B	41	1100	l	l	1	558	One
203	B	42	650	h	h	1	718	Four
203	B	43	950	k	k	1	683	Two
203	B	44	650	j	j	1	630	Three
203	B	45	950	l	l	1	611	One
203	B	46	500	h	h	1	721	Four
203	B	47	500	j	j	1	822	Three
203	B	48	950	k	k	1	593	Two
203	B	49	1100	b	b	1	531	Five
203	B	50	800	j	j	1	547	Three
203	C	1	950	j	j	1	738	Three
203	C	2	800	l	l	1	565	One
203	C	3	800	h	h	1	629	Four
203	C	4	650	k	k	1	653	Two
203	C	5	500	b	b	1	562	Five
203	C	6	800	l	l	1	626	One
203	C	7	650	k	k	1	583	Two
203	C	8	500	l	l	1	607	One
203	C	9	500	h	h	1	757	Four
203	C	10	950	b	b	1	562	Five
203	C	11	1100	j	j	1	1031	Three
203	C	12	1100	h	h	1	706	Four
203	C	13	950	l	l	1	509	One
203	C	14	800	b	b	1	554	Five
203	C	15	950	j	j	1	1031	Three
203	C	16	650	l	l	1	551	One
203	C	17	1100	h	h	1	642	Four
203	C	18	500	b	b	1	551	Five
203	C	19	500	k	k	1	602	Two
203	C	20	950	h	h	1	586	Four
203	C	21	500	j	j	1	1002	Three
203	C	22	1100	k	k	1	767	Two
203	C	23	800	j	j	1	607	Three
203	C	24	800	h	h	1	447	Four
203	C	25	1100	l	l	1	509	One
203	C	26	500	j	j	1	623	Three
203	C	27	650	b	b	1	501	Five
203	C	28	800	k	k	1	575	Two
203	C	29	650	j	j	1	517	Three
203	C	30	650	b	b	1	565	Five
203	C	31	650	j	j	1	831	Three
203	C	32	950	k	k	1	717	Two
203	C	33	650	h	h	1	621	Four
203	C	34	1100	l	l	1	669	One
203	C	35	950	b	b	1	618	Five
203	C	36	650	h	j	0	1400	Four
203	C	37	800	b	b	1	821	Five
203	C	38	500	l	l	1	565	One
203	C	39	1100	j	j	1	666	Three
203	C	40	1100	k	k	1	674	Two
203	C	41	650	l	l	1	514	One
203	C	42	500	k	k	1	741	Two
203	C	43	1100	b	b	1	549	Five
203	C	44	500	h	h	1	336	Four
203	C	45	950	l	l	1	514	One
203	C	46	800	k	k	1	744	Two
203	C	47	950	h	h	1	530	Four
203	C	48	800	j	j	1	634	Three
203	C	49	1100	b	b	1	589	Five
203	C	50	950	k	k	1	705	Two
203	D	1	800	j	j	1	571	Three
203	D	2	1100	l	l	1	640	Five
203	D	3	950	h	h	1	843	Two
203	D	4	500	j	j	1	603	Three
203	D	5	500	k	k	1	717	Four
203	D	6	950	b	b	1	619	One
203	D	7	650	j	j	1	645	Three
203	D	8	950	h	h	1	963	Two
203	D	9	650	k	k	1	923	Four
203	D	10	1100	b	b	1	573	One
203	D	11	950	l	l	1	563	Five
203	D	12	650	k	k	1	728	Four
203	D	13	800	l	l	1	864	Five
203	D	14	500	b	b	1	499	One
203	D	15	1100	j	j	1	370	Three
203	D	16	1100	h	b	0	560	Two
203	D	17	650	b	b	1	560	One
203	D	18	500	h	h	1	501	Two
203	D	19	1100	l	l	1	469	Five
203	D	20	800	h	h	1	527	Two
203	D	21	950	k	k	1	800	Four
203	D	22	950	j	j	1	594	Three
203	D	23	800	b	b	1	575	One
203	D	24	800	k	k	1	588	Four
203	D	25	650	h	h	1	405	Two
203	D	26	500	l	l	1	628	Five
203	D	27	800	b	b	1	605	One
203	D	28	650	h	h	1	386	Two
203	D	29	500	b	b	1	495	One
203	D	30	500	k	k	1	674	Four
203	D	31	950	l	l	1	674	Five
203	D	32	1100	j	j	1	1098	Three
203	D	33	1100	k	k	1	589	Four
203	D	34	950	b	b	1	813	One
203	D	35	800	l	l	1	634	Five
203	D	36	950	j	j	1	549	Three
203	D	37	650	b	b	1	599	One
203	D	38	1100	k	k	1	767	Four
203	D	39	500	l	l	1	677	Five
203	D	40	500	h	h	1	447	Two
203	D	41	950	k	k	1	1887	Four
203	D	42	500	j	j	1	733	Three
203	D	43	1100	h	h	1	479	Two
203	D	44	800	j	j	1	714	Three
203	D	45	800	k	k	1	1381	Four
203	D	46	1100	b	b	1	535	One
203	D	47	650	l	l	1	826	Five
203	D	48	800	h	h	1	423	Two
203	D	49	650	j	j	1	1023	Three
203	D	50	650	l	l	1	629	Five
203	E	1	950	j	j	1	1318	Three
203	E	2	800	b	b	1	571	One
203	E	3	800	k	k	1	611	Four
203	E	4	650	h	h	1	550	Two
203	E	5	500	l	l	1	553	Five
203	E	6	800	b	b	1	590	One
203	E	7	650	h	h	1	502	Two
203	E	8	500	b	b	1	766	One
203	E	9	500	k	k	1	979	Four
203	E	10	950	l	l	1	518	Five
203	E	11	1100	j	h	0	297	Three
203	E	12	1100	k	k	1	625	Four
203	E	13	950	b	b	1	515	One
203	E	14	800	l	l	1	553	Five
203	E	15	950	j	j	1	470	Three
203	E	16	650	b	b	1	510	One
203	E	17	1100	k	k	1	633	Four
203	E	18	500	l	l	1	563	Five
203	E	19	500	h	h	1	553	Two
203	E	20	950	k	k	1	478	Four
203	E	21	500	j	j	1	441	Three
203	E	22	1100	h	h	1	550	Two
203	E	23	800	j	j	1	555	Three
203	E	24	800	k	k	1	609	Four
203	E	25	1100	b	b	1	462	One
203	E	26	500	j	j	1	678	Three
203	E	27	650	l	l	1	574	Five
203	E	28	800	h	h	1	473	Two
203	E	29	650	j	j	1	689	Three
203	E	30	650	l	l	1	499	Five
203	E	31	650	j	j	1	473	Three
203	E	32	950	h	h	1	350	Two
203	E	33	650	k	k	1	494	Four
203	E	34	1100	b	b	1	493	One
203	E	35	950	l	l	1	568	Five
203	E	36	650	k	k	1	538	Four
203	E	37	800	l	l	1	797	Five
203	E	38	500	b	b	1	592	One
203	E	39	1100	j	j	1	474	Three
203	E	40	1100	h	h	1	477	Two
203	E	41	650	b	b	1	461	One
203	E	42	500	h	h	1	573	Two
203	E	43	1100	l	l	1	477	Five
203	E	44	500	k	k	1	744	Four
203	E	45	950	b	b	1	523	One
203	E	46	800	h	h	1	451	Two
203	E	47	950	k	k	1	683	Four
203	E	48	800	j	j	1	547	Three
203	E	49	1100	l	l	1	499	Five
203	E	50	950	h	h	1	405	Two
203	F	1	950	h	h	1	2103	Four
203	F	2	800	k	k	1	1089	Two
203	F	3	950	l	l	1	3769	One
203	F	4	500	h	j	0	833	Four
203	F	5	1100	b	b	1	761	Five
203	F	6	500	k	k	1	1060	Two
203	F	7	650	l	l	1	660	One
203	F	8	1100	k	k	1	743	Two
203	F	9	1100	j	j	1	1164	Three
203	F	10	500	l	l	1	623	One
203	F	11	800	b	b	1	655	Five
203	F	12	650	h	h	1	452	Four
203	F	13	950	b	b	1	596	Five
203	F	14	1100	l	l	1	572	One
203	F	15	650	h	h	1	1247	Four
203	F	16	950	k	k	1	721	Two
203	F	17	650	j	j	1	1175	Three
203	F	18	650	b	b	1	407	Five
203	F	19	650	j	j	1	1284	Three
203	F	20	950	h	h	1	567	Four
203	F	21	800	j	j	1	1575	Three
203	F	22	1100	l	l	1	433	One
203	F	23	800	h	h	1	759	Four
203	F	24	950	k	k	1	647	Two
203	F	25	1100	b	b	1	935	Five
203	F	26	800	j	j	1	663	Three
203	F	27	1100	k	k	1	1409	Two
203	F	28	500	j	j	1	735	Three
203	F	29	500	k	k	1	831	Two
203	F	30	500	b	b	1	556	Five
203	F	31	1100	h	h	1	1743	Four
203	F	32	650	l	l	1	577	One
203	F	33	950	j	j	1	591	Three
203	F	34	800	b	b	1	540	Five
203	F	35	950	l	l	1	609	One
203	F	36	1100	h	h	1	887	Four
203	F	37	1100	j	j	1	798	Three
203	F	38	950	b	b	1	492	Five
203	F	39	500	h	h	1	1521	Four
203	F	40	500	l	l	1	658	One
203	F	41	650	k	k	1	730	Two
203	F	42	800	l	l	1	623	One
203	F	43	500	b	b	1	603	Five
203	F	44	650	k	l	0	657	Two
203	F	45	800	h	h	1	926	Four
203	F	46	800	l	l	1	635	One
203	F	47	950	j	j	1	979	Three
203	F	48	800	k	k	1	1323	Two
203	F	49	650	b	b	1	686	Five
203	F	50	500	j	j	1	918	Three
203	G	1	800	j	j	1	705	Three
203	G	2	1100	b	b	1	564	Five
203	G	3	950	k	k	1	604	Two
203	G	4	500	j	j	1	579	Three
203	G	5	500	h	h	1	852	Four
203	G	6	950	l	l	1	580	One
203	G	7	650	j	j	1	627	Three
203	G	8	950	k	k	1	641	Two
203	G	9	650	h	j	0	580	Four
203	G	10	1100	l	l	1	540	One
203	G	11	950	b	b	1	528	Five
203	G	12	650	h	h	1	779	Four
203	G	13	800	b	b	1	518	Five
203	G	14	500	l	l	1	480	One
203	G	15	1100	j	j	1	672	Three
203	G	16	1100	k	k	1	572	Two
203	G	17	650	l	l	1	512	One
203	G	18	500	k	k	1	680	Two
203	G	19	1100	b	b	1	520	Five
203	G	20	800	k	k	1	600	Two
203	G	21	950	h	h	1	680	Four
203	G	22	950	j	j	1	603	Three
203	G	23	800	l	l	1	467	One
203	G	24	800	h	h	1	568	Four
203	G	25	650	k	k	1	464	Two
203	G	26	500	b	b	1	638	Five
203	G	27	800	l	l	1	470	One
203	G	28	650	k	k	1	614	Two
203	G	29	500	l	l	1	449	One
203	G	30	500	h	h	1	520	Four
203	G	31	950	b	b	1	558	Five
203	G	32	1100	j	j	1	528	Three
203	G	33	1100	h	h	1	577	Four
203	G	34	950	l	l	1	462	One
203	G	35	800	b	b	1	441	Five
203	G	36	950	j	j	1	515	Three
203	G	37	650	l	l	1	582	One
203	G	38	1100	h	h	1	518	Four
203	G	39	500	b	b	1	510	Five
203	G	40	500	k	k	1	739	Two
203	G	41	950	h	h	1	489	Four
203	G	42	500	j	j	1	553	Three
203	G	43	1100	k	k	1	547	Two
203	G	44	800	j	j	1	587	Three
203	G	45	800	h	h	1	761	Four
203	G	46	1100	l	l	1	505	One
203	G	47	650	b	b	1	582	Five
203	G	48	800	k	k	1	649	Two
203	G	49	650	j	j	1	577	Three
203	G	50	650	b	b	1	531	Five
203	H	1	650	l	l	1	686	Five
203	H	2	650	j	j	1	1673	Three
203	H	3	800	h	h	1	526	Two
203	H	4	650	l	l	1	625	Five
203	H	5	1100	b	b	1	681	One
203	H	6	800	k	k	1	809	Four
203	H	7	800	j	j	1	505	Three
203	H	8	1100	h	h	1	417	Two
203	H	9	500	j	k	0	657	Three
203	H	10	950	k	k	1	531	Four
203	H	11	500	h	h	1	721	Two
203	H	12	500	l	l	1	1462	Five
203	H	13	1100	k	k	1	1109	Four
203	H	14	650	b	b	1	685	One
203	H	15	950	j	j	1	501	Three
203	H	16	800	l	l	1	592	Five
203	H	17	950	b	b	1	621	One
203	H	18	1100	k	k	1	821	Four
203	H	19	1100	j	j	1	781	Three
203	H	20	950	l	l	1	608	Five
203	H	21	500	k	k	1	781	Four
203	H	22	500	b	b	1	581	One
203	H	23	650	h	h	1	419	Two
203	H	24	800	b	b	1	693	One
203	H	25	500	l	l	1	531	Five
203	H	26	650	h	h	1	613	Two
203	H	27	800	k	k	1	837	Four
203	H	28	800	b	b	1	619	One
203	H	29	950	j	j	1	621	Three
203	H	30	950	k	k	1	448	Four
203	H	31	800	h	l	0	304	Two
203	H	32	1100	l	l	1	424	Five
203	H	33	500	h	h	1	568	Two
203	H	34	650	b	b	1	635	One
203	H	35	1100	h	h	1	613	Two
203	H	36	1100	j	j	1	667	Three
203	H	37	500	b	b	1	659	One
203	H	38	800	l	l	1	637	Five
203	H	39	650	k	k	1	1229	Four
203	H	40	950	l	l	1	715	Five
203	H	41	1100	b	b	1	741	One
203	H	42	650	k	k	1	739	Four
203	H	43	950	h	h	1	485	Two
203	H	44	650	j	j	1	960	Three
203	H	45	950	b	b	1	445	One
203	H	46	500	k	k	1	611	Four
203	H	47	500	j	j	1	688	Three
203	H	48	950	h	h	1	416	Two
203	H	49	1100	l	l	1	704	Five
203	H	50	800	j	j	1	939	Three
205	A	1	950	k	k	1	589	Four
205	A	2	800	h	h	1	941	Two
205	A	3	950	b	b	1	592	One
205	A	4	500	k	k	1	565	Four
205	A	5	1100	l	l	1	533	Five
205	A	6	500	h	h	1	922	Two
205	A	7	650	b	b	1	661	One
205	A	8	1100	j	j	1	661	Three
205	A	9	800	l	l	1	525	Five
205	A	10	1100	h	h	1	592	Two
205	A	11	500	b	b	1	608	One
205	A	12	650	k	k	1	560	Four
205	A	13	950	l	l	1	522	Five
205	A	14	1100	b	b	1	429	One
205	A	15	650	k	k	1	568	Four
205	A	16	950	h	h	1	605	Two
205	A	17	650	j	j	1	562	Three
205	A	18	650	l	l	1	509	Five
205	A	19	650	j	j	1	594	Three
205	A	20	950	k	k	1	1405	Four
205	A	21	800	j	j	1	594	Three
205	A	22	1100	b	b	1	522	One
205	A	23	800	k	k	1	504	Four
205	A	24	950	h	h	1	648	Two
205	A	25	1100	l	l	1	621	Five
205	A	26	800	j	j	1	701	Three
205	A	27	1100	h	h	1	810	Two
205	A	28	500	j	j	1	530	Three
205	A	29	500	h	h	1	533	Two
205	A	30	500	l	l	1	616	Five
205	A	31	1100	k	k	1	565	Four
205	A	32	650	b	b	1	512	One
205	A	33	950	j	j	1	698	Three
205	A	34	800	l	l	1	618	Five
205	A	35	950	b	b	1	442	One
205	A	36	1100	k	k	1	576	Four
205	A	37	1100	j	j	1	629	Three
205	A	38	950	l	l	1	611	Five
205	A	39	500	k	k	1	547	Four
205	A	40	500	b	b	1	424	One
205	A	41	650	h	h	1	835	Two
205	A	42	800	b	b	1	520	One
205	A	43	500	l	l	1	565	Five
205	A	44	650	h	h	1	757	Two
205	A	45	800	k	k	1	683	Four
205	A	46	800	b	h	0	605	One
205	A	47	950	j	j	1	488	Three
205	A	48	800	h	h	1	1133	Two
205	A	49	650	l	l	1	579	Five
205	A	50	500	j	j	1	667	Three
205	B	1	650	b	b	1	606	Five
205	B	2	650	j	j	1	632	Three
205	B	3	800	k	k	1	630	Two
205	B	4	650	b	b	1	534	Five
205	B	5	1100	l	l	1	435	One
205	B	6	800	h	h	1	480	Four
205	B	7	800	j	j	1	566	Three
205	B	8	1100	k	k	1	627	Two
205	B	9	500	j	j	1	539	Three
205	B	10	950	h	h	1	550	Four
205	B	11	500	k	k	1	552	Two
205	B	12	500	b	b	1	587	Five
205	B	13	1100	h	h	1	611	Four
205	B	14	650	l	l	1	494	One
205	B	15	950	j	j	1	398	Three
205	B	16	800	b	b	1	1011	Five
205	B	17	950	l	l	1	418	One
205	B	18	1100	h	h	1	586	Four
205	B	19	1100	j	j	1	466	Three
205	B	20	950	b	b	1	573	Five
205	B	21	500	h	h	1	546	Four
205	B	22	500	l	l	1	490	One
205	B	23	650	k	k	1	765	Two
205	B	24	800	l	b	0	525	One
205	B	25	500	b	h	0	474	Five
205	B	26	650	k	k	1	666	Two
205	B	27	800	h	h	1	565	Four
205	B	28	800	l	l	1	501	One
205	B	29	950	j	j	1	575	Three
205	B	30	950	h	h	1	554	Four
205	B	31	800	k	k	1	576	Two
205	B	32	1100	b	b	1	616	Five
205	B	33	500	k	k	1	656	Two
205	B	34	650	l	l	1	501	One
205	B	35	1100	k	k	1	693	Two
205	B	36	1100	j	j	1	418	Three
205	B	37	500	l	l	1	474	One
205	B	38	800	b	b	1	608	Five
205	B	39	650	h	h	1	482	Four
205	B	40	950	b	b	1	546	Five
205	B	41	1100	l	l	1	490	One
205	B	42	650	h	h	1	557	Four
205	B	43	950	k	k	1	498	Two
205	B	44	650	j	j	1	576	Three
205	B	45	950	l	l	1	458	One
205	B	46	500	h	h	1	466	Four
205	B	47	500	j	j	1	498	Three
205	B	48	950	k	k	1	573	Two
205	B	49	1100	b	b	1	674	Five
205	B	50	800	j	j	1	520	Three
205	C	1	950	j	j	1	425	Three
205	C	2	800	l	l	1	510	One
205	C	3	800	h	h	1	796	Four
205	C	4	650	k	k	1	553	Two
205	C	5	500	b	b	1	513	Five
205	C	6	800	l	l	1	452	One
205	C	7	650	k	k	1	556	Two
205	C	8	500	l	l	1	457	One
205	C	9	500	h	h	1	905	Four
205	C	10	950	b	b	1	580	Five
205	C	11	1100	j	j	1	534	Three
205	C	12	1100	h	h	1	630	Four
205	C	13	950	l	l	1	713	One
205	C	14	800	b	b	1	684	Five
205	C	15	950	j	j	1	620	Three
205	C	16	650	l	l	1	545	One
205	C	17	1100	h	h	1	593	Four
205	C	18	500	b	b	1	396	Five
205	C	19	500	k	k	1	492	Two
205	C	20	950	h	h	1	622	Four
205	C	21	500	j	j	1	537	Three
205	C	22	1100	k	k	1	470	Two
205	C	23	800	j	j	1	812	Three
205	C	24	800	h	h	1	724	Four
205	C	25	1100	l	l	1	540	One
205	C	26	500	j	j	1	487	Three
205	C	27	650	b	b	1	524	Five
205	C	28	800	k	k	1	540	Two
205	C	29	650	j	j	1	567	Three
205	C	30	650	b	b	1	577	Five
205	C	31	650	j	j	1	535	Three
205	C	32	950	k	k	1	521	Two
205	C	33	650	h	h	1	641	Four
205	C	34	1100	l	l	1	481	One
205	C	35	950	b	b	1	543	Five
205	C	36	650	h	h	1	623	Four
205	C	37	800	b	b	1	529	Five
205	C	38	500	l	l	1	529	One
205	C	39	1100	j	j	1	540	Three
205	C	40	1100	k	k	1	564	Two
205	C	41	650	l	b	0	529	One
205	C	42	500	k	h	0	556	Two
205	C	43	1100	b	b	1	559	Five
205	C	44	500	h	h	1	551	Four
205	C	45	950	l	l	1	444	One
205	C	46	800	k	k	1	519	Two
205	C	47	950	h	h	1	484	Four
205	C	48	800	j	j	1	606	Three
205	C	49	1100	b	b	1	622	Five
205	C	50	950	k	k	1	590	Two
205	D	1	800	j	j	1	917	Three
205	D	2	1100	l	l	1	559	Five
205	D	3	950	h	h	1	581	Two
205	D	4	500	j	j	1	581	Three
205	D	5	500	k	k	1	669	Four
205	D	6	950	b	b	1	482	One
205	D	7	650	j	j	1	885	Three
205	D	8	950	h	h	1	613	Two
205	D	9	650	k	k	1	704	Four
205	D	10	1100	b	b	1	504	One
205	D	11	950	l	l	1	618	Five
205	D	12	650	k	k	1	1424	Four
205	D	13	800	l	l	1	674	Five
205	D	14	500	b	b	1	669	One
205	D	15	1100	j	j	1	720	Three
205	D	16	1100	h	h	1	682	Two
205	D	17	650	b	b	1	500	One
205	D	18	500	h	h	1	604	Two
205	D	19	1100	l	l	1	593	Five
205	D	20	800	h	h	1	559	Two
205	D	21	950	k	k	1	716	Four
205	D	22	950	j	j	1	697	Three
205	D	23	800	b	b	1	396	One
205	D	24	800	k	k	1	1001	Four
205	D	25	650	h	h	1	588	Two
205	D	26	500	l	l	1	623	Five
205	D	27	800	b	b	1	401	One
205	D	28	650	h	h	1	588	Two
205	D	29	500	b	b	1	439	One
205	D	30	500	k	k	1	649	Four
205	D	31	950	l	l	1	545	Five
205	D	32	1100	j	j	1	673	Three
205	D	33	1100	k	k	1	700	Four
205	D	34	950	b	b	1	559	One
205	D	35	800	l	l	1	588	Five
205	D	36	950	j	j	1	561	Three
205	D	37	650	b	b	1	532	One
205	D	38	1100	k	k	1	745	Four
205	D	39	500	l	l	1	633	Five
205	D	40	500	h	h	1	548	Two
205	D	41	950	k	k	1	657	Four
205	D	42	500	j	j	1	657	Three
205	D	43	1100	h	h	1	625	Two
205	D	44	800	j	j	1	780	Three
205	D	45	800	k	k	1	647	Four
205	D	46	1100	b	b	1	468	One
205	D	47	650	l	l	1	588	Five
205	D	48	800	h	h	1	714	Two
205	D	49	650	j	j	1	698	Three
205	D	50	650	l	l	1	599	Five
205	E	1	950	j	k	0	556	Three
205	E	2	800	b	b	1	538	One
205	E	3	800	k	k	1	756	Four
205	E	4	650	h	h	1	604	Two
205	E	5	500	l	l	1	714	Five
205	E	6	800	b	b	1	479	One
205	E	7	650	h	h	1	519	Two
205	E	8	500	b	b	1	570	One
205	E	9	500	k	k	1	623	Four
205	E	10	950	l	l	1	602	Five
205	E	11	1100	j	j	1	407	Three
205	E	12	1100	k	k	1	533	Four
205	E	13	950	b	b	1	413	One
205	E	14	800	l	l	1	565	Five
205	E	15	950	j	j	1	581	Three
205	E	16	650	b	b	1	594	One
205	E	17	1100	k	k	1	685	Four
205	E	18	500	l	l	1	754	Five
205	E	19	500	h	h	1	501	Two
205	E	20	950	k	l	0	607	Four
205	E	21	500	j	j	1	685	Three
205	E	22	1100	h	h	1	594	Two
205	E	23	800	j	j	1	623	Three
205	E	24	800	k	k	1	682	Four
205	E	25	1100	b	b	1	487	One
205	E	26	500	j	j	1	573	Three
205	E	27	650	l	l	1	663	Five
205	E	28	800	h	h	1	578	Two
205	E	29	650	j	j	1	623	Three
205	E	30	650	l	l	1	533	Five
205	E	31	650	j	j	1	551	Three
205	E	32	950	h	h	1	517	Two
205	E	33	650	k	k	1	469	Four
205	E	34	1100	b	b	1	519	One
205	E	35	950	l	l	1	813	Five
205	E	36	650	k	k	1	487	Four
205	E	37	800	l	l	1	559	Five
205	E	38	500	b	b	1	578	One
205	E	39	1100	j	j	1	562	Three
205	E	40	1100	h	h	1	495	Two
205	E	41	650	b	b	1	573	One
205	E	42	500	h	h	1	514	Two
205	E	43	1100	l	l	1	645	Five
205	E	44	500	k	k	1	530	Four
205	E	45	950	b	b	1	482	One
205	E	46	800	h	h	1	474	Two
205	E	47	950	k	k	1	704	Four
205	E	48	800	j	j	1	602	Three
205	E	49	1100	l	l	1	560	Five
205	E	50	950	h	h	1	613	Two
205	F	1	950	h	h	1	767	Four
205	F	2	800	k	k	1	727	Two
205	F	3	950	l	l	1	519	One
205	F	4	500	h	h	1	946	Four
205	F	5	1100	b	b	1	586	Five
205	F	6	500	k	k	1	1002	Two
205	F	7	650	l	l	1	413	One
205	F	8	1100	k	k	1	626	Two
205	F	9	1100	j	j	1	562	Three
205	F	10	500	l	l	1	688	One
205	F	11	800	b	b	1	600	Five
205	F	12	650	h	h	1	496	Four
205	F	13	950	b	b	1	610	Five
205	F	14	1100	l	l	1	528	One
205	F	15	650	h	h	1	610	Four
205	F	16	950	k	k	1	714	Two
205	F	17	650	j	j	1	578	Three
205	F	18	650	b	b	1	568	Five
205	F	19	650	j	j	1	562	Three
205	F	20	950	h	h	1	650	Four
205	F	21	800	j	j	1	538	Three
205	F	22	1100	l	l	1	466	One
205	F	23	800	h	h	1	621	Four
205	F	24	950	k	k	1	736	Two
205	F	25	1100	b	b	1	640	Five
205	F	26	800	j	j	1	1253	Three
205	F	27	1100	k	k	1	650	Two
205	F	28	500	j	j	1	1031	Three
205	F	29	500	k	k	1	481	Two
205	F	30	500	b	b	1	591	Five
205	F	31	1100	h	h	1	505	Four
205	F	32	650	l	l	1	479	One
205	F	33	950	j	j	1	924	Three
205	F	34	800	b	b	1	1140	Five
205	F	35	950	l	l	1	479	One
205	F	36	1100	h	h	1	505	Four
205	F	37	1100	j	k	0	513	Three
205	F	38	950	b	b	1	575	Five
205	F	39	500	h	h	1	559	Four
205	F	40	500	l	l	1	569	One
205	F	41	650	k	k	1	748	Two
205	F	42	800	l	l	1	537	One
205	F	43	500	b	b	1	522	Five
205	F	44	650	k	k	1	668	Two
205	F	45	800	h	h	1	578	Four
205	F	46	800	l	l	1	476	One
205	F	47	950	j	j	1	538	Three
205	F	48	800	k	k	1	564	Two
205	F	49	650	b	b	1	503	Five
205	F	50	500	j	j	1	503	Three
205	G	1	800	j	j	1	560	Three
205	G	2	1100	b	b	1	533	Five
205	G	3	950	k	k	1	421	Two
205	G	4	500	j	j	1	619	Three
205	G	5	500	h	h	1	597	Four
205	G	6	950	l	l	1	539	One
205	G	7	650	j	j	1	552	Three
205	G	8	950	k	k	1	971	Two
205	G	9	650	h	h	1	613	Four
205	G	10	1100	l	l	1	509	One
205	G	11	950	b	b	1	467	Five
205	G	12	650	h	h	1	509	Four
205	G	13	800	b	b	1	528	Five
205	G	14	500	l	l	1	581	One
205	G	15	1100	j	j	1	443	Three
205	G	16	1100	k	k	1	611	Two
205	G	17	650	l	l	1	640	One
205	G	18	500	k	k	1	624	Two
205	G	19	1100	b	b	1	539	Five
205	G	20	800	k	k	1	672	Two
205	G	21	950	h	h	1	741	Four
205	G	22	950	j	j	1	557	Three
205	G	23	800	l	l	1	523	One
205	G	24	800	h	h	1	763	Four
205	G	25	650	k	k	1	703	Two
205	G	26	500	b	b	1	507	Five
205	G	27	800	l	l	1	538	One
205	G	28	650	k	k	1	607	Two
205	G	29	500	l	l	1	514	One
205	G	30	500	h	h	1	596	Four
205	G	31	950	b	b	1	560	Five
205	G	32	1100	j	j	1	556	Three
205	G	33	1100	h	h	1	594	Four
205	G	34	950	l	l	1	501	One
205	G	35	800	b	b	1	543	Five
205	G	36	950	j	j	1	647	Three
205	G	37	650	l	l	1	479	One
205	G	38	1100	h	h	1	495	Four
205	G	39	500	b	b	1	551	Five
205	G	40	500	k	k	1	556	Two
205	G	41	950	h	h	1	615	Four
205	G	42	500	j	j	1	485	Three
205	G	43	1100	k	k	1	450	Two
205	G	44	800	j	j	1	530	Three
205	G	45	800	h	h	1	711	Four
205	G	46	1100	l	l	1	477	One
205	G	47	650	b	b	1	610	Five
205	G	48	800	k	k	1	634	Two
205	G	49	650	j	j	1	455	Three
205	G	50	650	b	b	1	581	Five
205	H	1	650	l	l	1	540	Five
205	H	2	650	j	j	1	633	Three
205	H	3	800	h	h	1	855	Two
205	H	4	650	l	k	0	511	Five
205	H	5	1100	b	b	1	599	One
205	H	6	800	k	k	1	807	Four
205	H	7	800	j	j	1	583	Three
205	H	8	1100	h	h	1	652	Two
205	H	9	500	j	j	1	599	Three
205	H	10	950	k	k	1	599	Four
205	H	11	500	h	h	1	625	Two
205	H	12	500	l	l	1	540	Five
205	H	13	1100	k	k	1	551	Four
205	H	14	650	b	b	1	593	One
205	H	15	950	j	j	1	657	Three
205	H	16	800	l	l	1	532	Five
205	H	17	950	b	b	1	724	One
205	H	18	1100	k	k	1	849	Four
205	H	19	1100	j	h	0	713	Three
205	H	20	950	l	l	1	500	Five
205	H	21	500	k	k	1	604	Four
205	H	22	500	b	b	1	631	One
205	H	23	650	h	h	1	593	Two
205	H	24	800	b	b	1	431	One
205	H	25	500	l	l	1	519	Five
205	H	26	650	h	h	1	548	Two
205	H	27	800	k	k	1	553	Four
205	H	28	800	b	b	1	543	One
205	H	29	950	j	j	1	601	Three
205	H	30	950	k	k	1	519	Four
205	H	31	800	h	h	1	807	Two
205	H	32	1100	l	l	1	521	Five
205	H	33	500	h	h	1	468	Two
205	H	34	650	b	b	1	471	One
205	H	35	1100	h	h	1	666	Two
205	H	36	1100	j	j	1	706	Three
205	H	37	500	b	b	1	548	One
205	H	38	800	l	l	1	506	Five
205	H	39	650	k	k	1	538	Four
205	H	40	950	l	l	1	398	Five
205	H	41	1100	b	b	1	559	One
205	H	42	650	k	k	1	604	Four
205	H	43	950	h	h	1	644	Two
205	H	44	650	j	j	1	554	Three
205	H	45	950	b	b	1	538	One
205	H	46	500	k	k	1	604	Four
205	H	47	500	j	j	1	572	Three
205	H	48	950	h	h	1	643	Two
205	H	49	1100	l	l	1	654	Five
205	H	50	800	j	j	1	430	Three
206	A	1	950	k	k	1	533	Four
206	A	2	800	h	h	1	463	Two
206	A	3	950	b	b	1	498	One
206	A	4	500	k	k	1	421	Four
206	A	5	1100	l	l	1	583	Five
206	A	6	500	h	h	1	415	Two
206	A	7	650	b	b	1	415	One
206	A	8	1100	j	j	1	621	Three
206	A	9	800	l	l	1	573	Five
206	A	10	1100	h	h	1	581	Two
206	A	11	500	b	b	1	554	One
206	A	12	650	k	k	1	559	Four
206	A	13	950	l	h	0	597	Five
206	A	14	1100	b	b	1	597	One
206	A	15	650	k	k	1	581	Four
206	A	16	950	h	h	1	453	Two
206	A	17	650	j	j	1	469	Three
206	A	18	650	l	l	1	570	Five
206	A	19	650	j	j	1	711	Three
206	A	20	950	k	k	1	607	Four
206	A	21	800	j	j	1	570	Three
206	A	22	1100	b	b	1	581	One
206	A	23	800	k	k	1	530	Four
206	A	24	950	h	h	1	610	Two
206	A	25	1100	l	l	1	583	Five
206	A	26	800	j	j	1	461	Three
206	A	27	1100	h	h	1	501	Two
206	A	28	500	j	j	1	599	Three
206	A	29	500	h	h	1	543	Two
206	A	30	500	l	l	1	501	Five
206	A	31	1100	k	k	1	453	Four
206	A	32	650	b	b	1	714	One
206	A	33	950	j	j	1	367	Three
206	A	34	800	l	l	1	429	Five
206	A	35	950	b	h	0	565	One
206	A	36	1100	k	k	1	570	Four
206	A	37	1100	j	j	1	477	Three
206	A	38	950	l	l	1	607	Five
206	A	39	500	k	k	1	520	Four
206	A	40	500	b	b	1	581	One
206	A	41	650	h	h	1	482	Two
206	A	42	800	b	b	1	506	One
206	A	43	500	l	l	1	546	Five
206	A	44	650	h	h	1	509	Two
206	A	45	800	k	k	1	546	Four
206	A	46	800	b	b	1	626	One
206	A	47	950	j	j	1	594	Three
206	A	48	800	h	h	1	448	Two
206	A	49	650	l	l	1	605	Five
206	A	50	500	j	j	1	565	Three
206	B	1	650	b	b	1	451	Five
206	B	2	650	j	j	1	1451	Three
206	B	3	800	k	k	1	598	Two
206	B	4	650	b	b	1	555	Five
206	B	5	1100	l	l	1	419	One
206	B	6	800	h	h	1	699	Four
206	B	7	800	j	j	1	698	Three
206	B	8	1100	k	k	1	672	Two
206	B	9	500	j	j	1	573	Three
206	B	10	950	h	h	1	619	Four
206	B	11	500	k	k	1	598	Two
206	B	12	500	b	b	1	978	Five
206	B	13	1100	h	h	1	509	Four
206	B	14	650	l	l	1	632	One
206	B	15	950	j	j	1	575	Three
206	B	16	800	b	b	1	575	Five
206	B	17	950	l	l	1	624	One
206	B	18	1100	h	h	1	695	Four
206	B	19	1100	j	j	1	634	Three
206	B	20	950	b	b	1	615	Five
206	B	21	500	h	h	1	461	Four
206	B	22	500	l	l	1	658	One
206	B	23	650	k	k	1	674	Two
206	B	24	800	l	l	1	527	One
206	B	25	500	b	h	0	618	Five
206	B	26	650	k	k	1	549	Two
206	B	27	800	h	h	1	591	Four
206	B	28	800	l	l	1	381	One
206	B	29	950	j	j	1	575	Three
206	B	30	950	h	h	1	362	Four
206	B	31	800	k	k	1	557	Two
206	B	32	1100	b	b	1	549	Five
206	B	33	500	k	k	1	559	Two
206	B	34	650	l	l	1	466	One
206	B	35	1100	k	k	1	624	Two
206	B	36	1100	j	j	1	439	Three
206	B	37	500	l	l	1	679	One
206	B	38	800	b	b	1	679	Five
206	B	39	650	h	h	1	530	Four
206	B	40	950	b	b	1	528	Five
206	B	41	1100	l	l	1	482	One
206	B	42	650	h	h	1	682	Four
206	B	43	950	k	k	1	562	Two
206	B	44	650	j	k	0	567	Three
206	B	45	950	l	l	1	618	One
206	B	46	500	h	h	1	690	Four
206	B	47	500	j	j	1	589	Three
206	B	48	950	k	k	1	386	Two
206	B	49	1100	b	b	1	528	Five
206	B	50	800	j	k	0	709	Three
206	C	1	950	j	j	1	804	Three
206	C	2	800	l	l	1	660	One
206	C	3	800	h	h	1	646	Four
206	C	4	650	k	k	1	601	Two
206	C	5	500	b	b	1	630	Five
206	C	6	800	l	l	1	500	One
206	C	7	650	k	k	1	417	Two
206	C	8	500	l	l	1	585	One
206	C	9	500	h	h	1	617	Four
206	C	10	950	b	b	1	588	Five
206	C	11	1100	j	j	1	935	Three
206	C	12	1100	h	h	1	503	Four
206	C	13	950	l	l	1	569	One
206	C	14	800	b	b	1	601	Five
206	C	15	950	j	j	1	672	Three
206	C	16	650	l	l	1	744	One
206	C	17	1100	h	h	1	600	Four
206	C	18	500	b	b	1	694	Five
206	C	19	500	k	k	1	566	Two
206	C	20	950	h	h	1	654	Four
206	C	21	500	j	j	1	646	Three
206	C	22	1100	k	k	1	1043	Two
206	C	23	800	j	j	1	611	Three
206	C	24	800	h	h	1	547	Four
206	C	25	1100	l	l	1	590	One
206	C	26	500	j	j	1	720	Three
206	C	27	650	b	b	1	595	Five
206	C	28	800	k	k	1	600	Two
206	C	29	650	j	j	1	587	Three
206	C	30	650	b	b	1	611	Five
206	C	31	650	j	j	1	518	Three
206	C	32	950	k	k	1	619	Two
206	C	33	650	h	h	1	528	Four
206	C	34	1100	l	l	1	350	One
206	C	35	950	b	b	1	555	Five
206	C	36	650	h	h	1	571	Four
206	C	37	800	b	b	1	571	Five
206	C	38	500	l	l	1	536	One
206	C	39	1100	j	j	1	680	Three
206	C	40	1100	k	k	1	766	Two
206	C	41	650	l	l	1	928	One
206	C	42	500	k	k	1	718	Two
206	C	43	1100	b	b	1	648	Five
206	C	44	500	h	h	1	606	Four
206	C	45	950	l	l	1	558	One
206	C	46	800	k	k	1	427	Two
206	C	47	950	h	h	1	657	Four
206	C	48	800	j	j	1	763	Three
206	C	49	1100	b	b	1	609	Five
206	C	50	950	k	k	1	761	Two
206	D	1	800	j	j	1	1169	Three
206	D	2	1100	l	l	1	718	Five
206	D	3	950	h	h	1	628	Two
206	D	4	500	j	j	1	702	Three
206	D	5	500	k	k	1	526	Four
206	D	6	950	b	b	1	518	One
206	D	7	650	j	j	1	822	Three
206	D	8	950	h	h	1	409	Two
206	D	9	650	k	k	1	716	Four
206	D	10	1100	b	b	1	599	One
206	D	11	950	l	l	1	1668	Five
206	D	12	650	k	k	1	796	Four
206	D	13	800	l	l	1	649	Five
206	D	14	500	b	b	1	607	One
206	D	15	1100	j	j	1	588	Three
206	D	16	1100	h	h	1	383	Two
206	D	17	650	b	b	1	532	One
206	D	18	500	h	h	1	449	Two
206	D	19	1100	l	l	1	1159	Five
206	D	20	800	h	h	1	627	Two
206	D	21	950	k	k	1	752	Four
206	D	22	950	j	j	1	702	Three
206	D	23	800	b	b	1	544	One
206	D	24	800	k	k	1	779	Four
206	D	25	650	h	j	0	616	Two
206	D	26	500	l	l	1	552	Five
206	D	27	800	b	b	1	502	One
206	D	28	650	h	h	1	387	Two
206	D	29	500	b	b	1	518	One
206	D	30	500	k	k	1	824	Four
206	D	31	950	l	l	1	539	Five
206	D	32	1100	j	j	1	707	Three
206	D	33	1100	k	k	1	646	Four
206	D	34	950	b	b	1	518	One
206	D	35	800	l	l	1	611	Five
206	D	36	950	j	j	1	635	Three
206	D	37	650	b	b	1	531	One
206	D	38	1100	k	k	1	704	Four
206	D	39	500	l	l	1	1216	Five
206	D	40	500	h	h	1	616	Two
206	D	41	950	k	l	0	563	Four
206	D	42	500	j	j	1	712	Three
206	D	43	1100	h	h	1	587	Two
206	D	44	800	j	j	1	609	Three
206	D	45	800	k	k	1	649	Four
206	D	46	1100	b	b	1	622	One
206	D	47	650	l	l	1	1075	Five
206	D	48	800	h	h	1	657	Two
206	D	49	650	j	j	1	806	Three
206	D	50	650	l	l	1	433	Five
206	E	1	950	j	j	1	607	Three
206	E	2	800	b	b	1	615	One
206	E	3	800	k	k	1	601	Four
206	E	4	650	h	j	0	548	Two
206	E	5	500	l	l	1	863	Five
206	E	6	800	b	b	1	497	One
206	E	7	650	h	h	1	359	Two
206	E	8	500	b	b	1	561	One
206	E	9	500	k	k	1	503	Four
206	E	10	950	l	l	1	634	Five
206	E	11	1100	j	j	1	460	Three
206	E	12	1100	k	k	1	452	Four
206	E	13	950	b	b	1	956	One
206	E	14	800	l	l	1	530	Five
206	E	15	950	j	k	0	738	Three
206	E	16	650	b	b	1	935	One
206	E	17	1100	k	k	1	519	Four
206	E	18	500	l	l	1	722	Five
206	E	19	500	h	h	1	647	Two
206	E	20	950	k	k	1	631	Four
206	E	21	500	j	j	1	434	Three
206	E	22	1100	h	h	1	420	Two
206	E	23	800	j	j	1	1247	Three
206	E	24	800	k	k	1	399	Four
206	E	25	1100	b	b	1	586	One
206	E	26	500	j	j	1	1170	Three
206	E	27	650	l	l	1	596	Five
206	E	28	800	h	h	1	658	Two
206	E	29	650	j	j	1	535	Three
206	E	30	650	l	l	1	548	Five
206	E	31	650	j	j	1	604	Three
206	E	32	950	h	h	1	468	Two
206	E	33	650	k	k	1	460	Four
206	E	34	1100	b	b	1	508	One
206	E	35	950	l	l	1	570	Five
206	E	36	650	k	k	1	388	Four
206	E	37	800	l	l	1	530	Five
206	E	38	500	b	b	1	823	One
206	E	39	1100	j	j	1	1287	Three
206	E	40	1100	h	h	1	340	Two
206	E	41	650	b	b	1	530	One
206	E	42	500	h	h	1	630	Two
206	E	43	1100	l	l	1	561	Five
206	E	44	500	k	k	1	614	Four
206	E	45	950	b	b	1	505	One
206	E	46	800	h	h	1	516	Two
206	E	47	950	k	k	1	449	Four
206	E	48	800	j	j	1	313	Three
206	E	49	1100	l	l	1	500	Five
206	E	50	950	h	h	1	622	Two
206	F	1	950	h	h	1	1212	Four
206	F	2	800	k	k	1	620	Two
206	F	3	950	l	l	1	519	One
206	F	4	500	h	h	1	658	Four
206	F	5	1100	b	b	1	346	Five
206	F	6	500	k	h	0	658	Two
206	F	7	650	l	l	1	1191	One
206	F	8	1100	k	k	1	969	Two
206	F	9	1100	j	j	1	414	Three
206	F	10	500	l	l	1	614	One
206	F	11	800	b	b	1	513	Five
206	F	12	650	h	h	1	433	Four
206	F	13	950	b	b	1	518	Five
206	F	14	1100	l	l	1	609	One
206	F	15	650	h	h	1	643	Four
206	F	16	950	k	k	1	587	Two
206	F	17	650	j	j	1	347	Three
206	F	18	650	b	b	1	563	Five
206	F	19	650	j	j	1	606	Three
206	F	20	950	h	h	1	438	Four
206	F	21	800	j	k	0	571	Three
206	F	22	1100	l	l	1	593	One
206	F	23	800	h	h	1	638	Four
206	F	24	950	k	k	1	491	Two
206	F	25	1100	b	b	1	513	Five
206	F	26	800	j	j	1	822	Three
206	F	27	1100	k	k	1	534	Two
206	F	28	500	j	j	1	606	Three
206	F	29	500	k	k	1	548	Two
206	F	30	500	b	b	1	526	Five
206	F	31	1100	h	h	1	380	Four
206	F	32	650	l	l	1	545	One
206	F	33	950	j	j	1	548	Three
206	F	34	800	b	b	1	721	Five
206	F	35	950	l	l	1	513	One
206	F	36	1100	h	h	1	612	Four
206	F	37	1100	j	j	1	761	Three
206	F	38	950	b	b	1	505	Five
206	F	39	500	h	h	1	705	Four
206	F	40	500	l	l	1	569	One
206	F	41	650	k	k	1	452	Two
206	F	42	800	l	l	1	692	One
206	F	43	500	b	b	1	713	Five
206	F	44	650	k	k	1	753	Two
206	F	45	800	h	h	1	590	Four
206	F	46	800	l	l	1	500	One
206	F	47	950	j	j	1	566	Three
206	F	48	800	k	k	1	550	Two
206	F	49	650	b	b	1	486	Five
206	F	50	500	j	k	0	620	Three
206	G	1	800	j	j	1	674	Three
206	G	2	1100	b	b	1	613	Five
206	G	3	950	k	k	1	621	Two
206	G	4	500	j	j	1	677	Three
206	G	5	500	h	h	1	488	Four
206	G	6	950	l	l	1	376	One
206	G	7	650	j	j	1	725	Three
206	G	8	950	k	k	1	389	Two
206	G	9	650	h	h	1	493	Four
206	G	10	1100	l	l	1	562	One
206	G	11	950	b	b	1	530	Five
206	G	12	650	h	h	1	661	Four
206	G	13	800	b	b	1	568	Five
206	G	14	500	l	l	1	613	One
206	G	15	1100	j	j	1	466	Three
206	G	16	1100	k	k	1	730	Two
206	G	17	650	l	l	1	1133	One
206	G	18	500	k	k	1	730	Two
206	G	19	1100	b	b	1	568	Five
206	G	20	800	k	k	1	648	Two
206	G	21	950	h	h	1	616	Four
206	G	22	950	j	j	1	410	Three
206	G	23	800	l	l	1	482	One
206	G	24	800	h	h	1	650	Four
206	G	25	650	k	k	1	565	Two
206	G	26	500	b	b	1	787	Five
206	G	27	800	l	l	1	845	One
206	G	28	650	k	k	1	584	Two
206	G	29	500	l	l	1	664	One
206	G	30	500	h	h	1	1024	Four
206	G	31	950	b	b	1	451	Five
206	G	32	1100	j	j	1	896	Three
206	G	33	1100	h	h	1	576	Four
206	G	34	950	l	l	1	1187	One
206	G	35	800	b	b	1	653	Five
206	G	36	950	j	j	1	765	Three
206	G	37	650	l	l	1	616	One
206	G	38	1100	h	h	1	400	Four
206	G	39	500	b	b	1	571	Five
206	G	40	500	k	k	1	912	Two
206	G	41	950	h	h	1	541	Four
206	G	42	500	j	j	1	621	Three
206	G	43	1100	k	k	1	413	Two
206	G	44	800	j	j	1	645	Three
206	G	45	800	h	h	1	349	Four
206	G	46	1100	l	l	1	639	One
206	G	47	650	b	b	1	527	Five
206	G	48	800	k	k	1	839	Two
206	G	49	650	j	j	1	415	Three
206	G	50	650	b	b	1	652	Five
206	H	1	650	l	l	1	577	Five
206	H	2	650	j	j	1	615	Three
206	H	3	800	h	h	1	369	Two
206	H	4	650	l	l	1	852	Five
206	H	5	1100	b	b	1	513	One
206	H	6	800	k	k	1	519	Four
206	H	7	800	j	j	1	628	Three
206	H	8	1100	h	h	1	703	Two
206	H	9	500	j	j	1	735	Three
206	H	10	950	k	k	1	409	Four
206	H	11	500	h	h	1	718	Two
206	H	12	500	l	l	1	664	Five
206	H	13	1100	k	k	1	472	Four
206	H	14	650	b	b	1	576	One
206	H	15	950	j	j	1	563	Three
206	H	16	800	l	l	1	555	Five
206	H	17	950	b	b	1	568	One
206	H	18	1100	k	k	1	566	Four
206	H	19	1100	j	j	1	539	Three
206	H	20	950	l	l	1	590	Five
206	H	21	500	k	k	1	752	Four
206	H	22	500	b	b	1	835	One
206	H	23	650	h	h	1	427	Two
206	H	24	800	b	b	1	584	One
206	H	25	500	l	l	1	640	Five
206	H	26	650	h	h	1	643	Two
206	H	27	800	k	k	1	667	Four
206	H	28	800	b	b	1	632	One
206	H	29	950	j	j	1	614	Three
206	H	30	950	k	k	1	377	Four
206	H	31	800	h	h	1	595	Two
206	H	32	1100	l	l	1	590	Five
206	H	33	500	h	h	1	577	Two
206	H	34	650	b	b	1	518	One
206	H	35	1100	h	h	1	441	Two
206	H	36	1100	j	j	1	662	Three
206	H	37	500	b	b	1	830	One
206	H	38	800	l	l	1	619	Five
206	H	39	650	k	k	1	737	Four
206	H	40	950	l	l	1	811	Five
206	H	41	1100	b	b	1	617	One
206	H	42	650	k	k	1	694	Four
206	H	43	950	h	h	1	601	Two
206	H	44	650	j	j	1	555	Three
206	H	45	950	b	b	1	641	One
206	H	46	500	k	k	1	630	Four
206	H	47	500	j	j	1	849	Three
206	H	48	950	h	h	1	473	Two
206	H	49	1100	l	l	1	499	Five
206	H	50	800	j	j	1	662	Three
207	A	1	950	k	k	1	530	Four
207	A	2	800	h	h	1	580	Two
207	A	3	950	b	b	1	498	One
207	A	4	500	k	k	1	474	Four
207	A	5	1100	l	l	1	551	Five
207	A	6	500	h	j	0	474	Two
207	A	7	650	b	b	1	476	One
207	A	8	1100	j	j	1	903	Three
207	A	9	800	l	l	1	514	Five
207	A	10	1100	h	h	1	506	Two
207	A	11	500	b	b	1	466	One
207	A	12	650	k	j	0	634	Four
207	A	13	950	l	l	1	519	Five
207	A	14	1100	b	b	1	479	One
207	A	15	650	k	k	1	575	Four
207	A	16	950	h	h	1	426	Two
207	A	17	650	j	k	0	564	Three
207	A	18	650	l	l	1	578	Five
207	A	19	650	j	j	1	455	Three
207	A	20	950	k	k	1	514	Four
207	A	21	800	j	j	1	506	Three
207	A	22	1100	b	b	1	490	One
207	A	23	800	k	k	1	581	Four
207	A	24	950	h	h	1	501	Two
207	A	25	1100	l	l	1	533	Five
207	A	26	800	j	j	1	482	Three
207	A	27	1100	h	h	1	474	Two
207	A	28	500	j	j	1	487	Three
207	A	29	500	h	h	1	554	Two
207	A	30	500	l	l	1	583	Five
207	A	31	1100	k	k	1	525	Four
207	A	32	650	b	b	1	541	One
207	A	33	950	j	j	1	557	Three
207	A	34	800	l	l	1	506	Five
207	A	35	950	b	b	1	581	One
207	A	36	1100	k	k	1	674	Four
207	A	37	1100	j	j	1	518	Three
207	A	38	950	l	l	1	581	Five
207	A	39	500	k	k	1	556	Four
207	A	40	500	b	b	1	557	One
207	A	41	650	h	h	1	572	Two
207	A	42	800	b	b	1	493	One
207	A	43	500	l	l	1	534	Five
207	A	44	650	h	h	1	473	Two
207	A	45	800	k	k	1	548	Four
207	A	46	800	b	b	1	550	One
207	A	47	950	j	j	1	550	Three
207	A	48	800	h	h	1	521	Two
207	A	49	650	l	l	1	574	Five
207	A	50	500	j	j	1	524	Three
207	B	1	650	b	b	1	785	Five
207	B	2	650	j	j	1	510	Three
207	B	3	800	k	k	1	467	Two
207	B	4	650	b	b	1	1051	Five
207	B	5	1100	l	l	1	793	One
207	B	6	800	h	h	1	582	Four
207	B	7	800	j	j	1	489	Three
207	B	8	1100	k	k	1	518	Two
207	B	9	500	j	j	1	560	Three
207	B	10	950	h	h	1	528	Four
207	B	11	500	k	k	1	597	Two
207	B	12	500	b	b	1	520	Five
207	B	13	1100	h	h	1	477	Four
207	B	14	650	l	l	1	533	One
207	B	15	950	j	j	1	552	Three
207	B	16	800	b	b	1	541	Five
207	B	17	950	l	l	1	552	One
207	B	18	1100	h	h	1	555	Four
207	B	19	1100	j	j	1	549	Three
207	B	20	950	b	b	1	635	Five
207	B	21	500	h	h	1	541	Four
207	B	22	500	l	l	1	533	One
207	B	23	650	k	k	1	704	Two
207	B	24	800	l	l	1	643	One
207	B	25	500	b	b	1	576	Five
207	B	26	650	k	k	1	629	Two
207	B	27	800	h	h	1	595	Four
207	B	28	800	l	l	1	608	One
207	B	29	950	j	j	1	552	Three
207	B	30	950	h	h	1	549	Four
207	B	31	800	k	k	1	643	Two
207	B	32	1100	b	b	1	688	Five
207	B	33	500	k	k	1	533	Two
207	B	34	650	l	l	1	552	One
207	B	35	1100	k	k	1	619	Two
207	B	36	1100	j	j	1	571	Three
207	B	37	500	l	l	1	768	One
207	B	38	800	b	b	1	576	Five
207	B	39	650	h	h	1	565	Four
207	B	40	950	b	b	1	637	Five
207	B	41	1100	l	l	1	504	One
207	B	42	650	h	h	1	565	Four
207	B	43	950	k	k	1	501	Two
207	B	44	650	j	j	1	571	Three
207	B	45	950	l	l	1	459	One
207	B	46	500	h	h	1	587	Four
207	B	47	500	j	j	1	651	Three
207	B	48	950	k	k	1	563	Two
207	B	49	1100	b	b	1	552	Five
207	B	50	800	j	j	1	501	Three
207	C	1	950	j	j	1	581	Three
207	C	2	800	l	l	1	495	One
207	C	3	800	h	h	1	457	Four
207	C	4	650	k	k	1	535	Two
207	C	5	500	b	b	1	559	Five
207	C	6	800	l	l	1	388	One
207	C	7	650	k	k	1	684	Two
207	C	8	500	l	l	1	529	One
207	C	9	500	h	h	1	527	Four
207	C	10	950	b	b	1	535	Five
207	C	11	1100	j	j	1	519	Three
207	C	12	1100	h	h	1	481	Four
207	C	13	950	l	l	1	425	One
207	C	14	800	b	b	1	500	Five
207	C	15	950	j	j	1	535	Three
207	C	16	650	l	l	1	428	One
207	C	17	1100	h	h	1	503	Four
207	C	18	500	b	l	0	495	Five
207	C	19	500	k	k	1	647	Two
207	C	20	950	h	h	1	559	Four
207	C	21	500	j	j	1	577	Three
207	C	22	1100	k	k	1	617	Two
207	C	23	800	j	j	1	644	Three
207	C	24	800	h	h	1	524	Four
207	C	25	1100	l	l	1	458	One
207	C	26	500	j	j	1	578	Three
207	C	27	650	b	b	1	431	Five
207	C	28	800	k	k	1	588	Two
207	C	29	650	j	j	1	468	Three
207	C	30	650	b	b	1	556	Five
207	C	31	650	j	j	1	468	Three
207	C	32	950	k	k	1	506	Two
207	C	33	650	h	h	1	495	Four
207	C	34	1100	l	l	1	855	One
207	C	35	950	b	b	1	506	Five
207	C	36	650	h	h	1	527	Four
207	C	37	800	b	b	1	535	Five
207	C	38	500	l	l	1	479	One
207	C	39	1100	j	j	1	530	Three
207	C	40	1100	k	k	1	631	Two
207	C	41	650	l	l	1	591	One
207	C	42	500	k	k	1	594	Two
207	C	43	1100	b	b	1	612	Five
207	C	44	500	h	h	1	522	Four
207	C	45	950	l	b	0	666	One
207	C	46	800	k	k	1	1260	Two
207	C	47	950	h	h	1	687	Four
207	C	48	800	j	j	1	575	Three
207	C	49	1100	b	b	1	783	Five
207	C	50	950	k	k	1	498	Two
207	D	1	800	j	j	1	516	Three
207	D	2	1100	l	l	1	551	Five
207	D	3	950	h	h	1	512	Two
207	D	4	500	j	j	1	535	Three
207	D	5	500	k	k	1	581	Four
207	D	6	950	b	b	1	540	One
207	D	7	650	j	j	1	652	Three
207	D	8	950	h	h	1	465	Two
207	D	9	650	k	k	1	508	Four
207	D	10	1100	b	b	1	487	One
207	D	11	950	l	l	1	593	Five
207	D	12	650	k	k	1	553	Four
207	D	13	800	l	l	1	607	Five
207	D	14	500	b	b	1	553	One
207	D	15	1100	j	j	1	596	Three
207	D	16	1100	h	h	1	612	Two
207	D	17	650	b	b	1	676	One
207	D	18	500	h	h	1	577	Two
207	D	19	1100	l	l	1	676	Five
207	D	20	800	h	h	1	593	Two
207	D	21	950	k	k	1	636	Four
207	D	22	950	j	j	1	665	Three
207	D	23	800	b	b	1	639	One
207	D	24	800	k	k	1	644	Four
207	D	25	650	h	h	1	593	Two
207	D	26	500	l	l	1	628	Five
207	D	27	800	b	b	1	591	One
207	D	28	650	h	h	1	615	Two
207	D	29	500	b	b	1	609	One
207	D	30	500	k	k	1	588	Four
207	D	31	950	l	l	1	663	Five
207	D	32	1100	j	j	1	636	Three
207	D	33	1100	k	k	1	639	Four
207	D	34	950	b	b	1	575	One
207	D	35	800	l	l	1	596	Five
207	D	36	950	j	j	1	644	Three
207	D	37	650	b	b	1	572	One
207	D	38	1100	k	k	1	559	Four
207	D	39	500	l	l	1	540	Five
207	D	40	500	h	h	1	612	Two
207	D	41	950	k	k	1	588	Four
207	D	42	500	j	j	1	537	Three
207	D	43	1100	h	h	1	540	Two
207	D	44	800	j	k	0	583	Three
207	D	45	800	k	k	1	551	Four
207	D	46	1100	b	b	1	540	One
207	D	47	650	l	l	1	602	Five
207	D	48	800	h	h	1	490	Two
207	D	49	650	j	j	1	572	Three
207	D	50	650	l	l	1	540	Five
207	E	1	950	j	j	1	628	Three
207	E	2	800	b	b	1	713	One
207	E	3	800	k	k	1	527	Four
207	E	4	650	h	h	1	473	Two
207	E	5	500	l	l	1	460	Five
207	E	6	800	b	b	1	479	One
207	E	7	650	h	h	1	431	Two
207	E	8	500	b	b	1	577	One
207	E	9	500	k	k	1	481	Four
207	E	10	950	l	l	1	513	Five
207	E	11	1100	j	j	1	500	Three
207	E	12	1100	k	k	1	684	Four
207	E	13	950	b	b	1	500	One
207	E	14	800	l	l	1	815	Five
207	E	15	950	j	j	1	537	Three
207	E	16	650	b	b	1	575	One
207	E	17	1100	k	k	1	543	Four
207	E	18	500	l	l	1	511	Five
207	E	19	500	h	h	1	745	Two
207	E	20	950	k	k	1	516	Four
207	E	21	500	j	j	1	487	Three
207	E	22	1100	h	h	1	636	Two
207	E	23	800	j	j	1	649	Three
207	E	24	800	k	k	1	489	Four
207	E	25	1100	b	b	1	519	One
207	E	26	500	j	j	1	449	Three
207	E	27	650	l	l	1	460	Five
207	E	28	800	h	h	1	479	Two
207	E	29	650	j	j	1	479	Three
207	E	30	650	l	l	1	527	Five
207	E	31	650	j	j	1	473	Three
207	E	32	950	h	h	1	495	Two
207	E	33	650	k	k	1	436	Four
207	E	34	1100	b	b	1	479	One
207	E	35	950	l	l	1	508	Five
207	E	36	650	k	k	1	524	Four
207	E	37	800	l	l	1	548	Five
207	E	38	500	b	b	1	615	One
207	E	39	1100	j	j	1	495	Three
207	E	40	1100	h	h	1	551	Two
207	E	41	650	b	b	1	479	One
207	E	42	500	h	h	1	490	Two
207	E	43	1100	l	l	1	471	Five
207	E	44	500	k	k	1	554	Four
207	E	45	950	b	b	1	567	One
207	E	46	800	h	h	1	455	Two
207	E	47	950	k	k	1	570	Four
207	E	48	800	j	j	1	426	Three
207	E	49	1100	l	l	1	521	Five
207	E	50	950	h	h	1	513	Two
207	F	1	950	h	h	1	684	Four
207	F	2	800	k	k	1	532	Two
207	F	3	950	l	b	0	604	One
207	F	4	500	h	h	1	881	Four
207	F	5	1100	b	b	1	887	Five
207	F	6	500	k	k	1	676	Two
207	F	7	650	l	l	1	652	One
207	F	8	1100	k	k	1	617	Two
207	F	9	1100	j	j	1	505	Three
207	F	10	500	l	l	1	609	One
207	F	11	800	b	b	1	633	Five
207	F	12	650	h	h	1	641	Four
207	F	13	950	b	b	1	593	Five
207	F	14	1100	l	l	1	476	One
207	F	15	650	h	h	1	564	Four
207	F	16	950	k	k	1	484	Two
207	F	17	650	j	j	1	583	Three
207	F	18	650	b	b	1	516	Five
207	F	19	650	j	j	1	548	Three
207	F	20	950	h	h	1	545	Four
207	F	21	800	j	j	1	604	Three
207	F	22	1100	l	l	1	458	One
207	F	23	800	h	h	1	540	Four
207	F	24	950	k	k	1	607	Two
207	F	25	1100	b	b	1	660	Five
207	F	26	800	j	j	1	575	Three
207	F	27	1100	k	k	1	583	Two
207	F	28	500	j	j	1	559	Three
207	F	29	500	k	k	1	562	Two
207	F	30	500	b	b	1	599	Five
207	F	31	1100	h	h	1	546	Four
207	F	32	650	l	l	1	503	One
207	F	33	950	j	j	1	562	Three
207	F	34	800	b	b	1	530	Five
207	F	35	950	l	l	1	546	One
207	F	36	1100	h	h	1	578	Four
207	F	37	1100	j	j	1	570	Three
207	F	38	950	b	b	1	514	Five
207	F	39	500	h	h	1	540	Four
207	F	40	500	l	l	1	484	One
207	F	41	650	k	k	1	495	Two
207	F	42	800	l	l	1	514	One
207	F	43	500	b	b	1	596	Five
207	F	44	650	k	k	1	564	Two
207	F	45	800	h	h	1	556	Four
207	F	46	800	l	l	1	450	One
207	F	47	950	j	j	1	522	Three
207	F	48	800	k	k	1	538	Two
207	F	49	650	b	b	1	463	Five
207	F	50	500	j	j	1	503	Three
207	G	1	800	j	j	1	587	Three
207	G	2	1100	b	b	1	510	Five
207	G	3	950	k	k	1	483	Two
207	G	4	500	j	j	1	448	Three
207	G	5	500	h	h	1	470	Four
207	G	6	950	l	l	1	539	One
207	G	7	650	j	j	1	440	Three
207	G	8	950	k	k	1	640	Two
207	G	9	650	h	h	1	459	Four
207	G	10	1100	l	l	1	443	One
207	G	11	950	b	b	1	443	Five
207	G	12	650	h	h	1	526	Four
207	G	13	800	b	b	1	606	Five
207	G	14	500	l	l	1	467	One
207	G	15	1100	j	j	1	510	Three
207	G	16	1100	k	k	1	584	Two
207	G	17	650	l	l	1	454	One
207	G	18	500	k	k	1	515	Two
207	G	19	1100	b	b	1	566	Five
207	G	20	800	k	k	1	566	Two
207	G	21	950	h	h	1	510	Four
207	G	22	950	j	j	1	515	Three
207	G	23	800	l	l	1	592	One
207	G	24	800	h	h	1	462	Four
207	G	25	650	k	k	1	771	Two
207	G	26	500	b	b	1	632	Five
207	G	27	800	l	l	1	518	One
207	G	28	650	k	k	1	494	Two
207	G	29	500	l	l	1	683	One
207	G	30	500	h	h	1	512	Four
207	G	31	950	b	b	1	510	Five
207	G	32	1100	j	j	1	495	Three
207	G	33	1100	h	h	1	480	Four
207	G	34	950	l	l	1	477	One
207	G	35	800	b	b	1	546	Five
207	G	36	950	j	j	1	477	Three
207	G	37	650	l	l	1	445	One
207	G	38	1100	h	h	1	514	Four
207	G	39	500	b	b	1	501	Five
207	G	40	500	k	k	1	501	Two
207	G	41	950	h	h	1	512	Four
207	G	42	500	j	j	1	514	Three
207	G	43	1100	k	k	1	653	Two
207	G	44	800	j	j	1	565	Three
207	G	45	800	h	h	1	565	Four
207	G	46	1100	l	l	1	546	One
207	G	47	650	b	b	1	576	Five
207	G	48	800	k	k	1	458	Two
207	G	49	650	j	j	1	488	Three
207	G	50	650	b	b	1	682	Five
207	H	1	650	l	l	1	588	Five
207	H	2	650	j	j	1	500	Three
207	H	3	800	h	h	1	486	Two
207	H	4	650	l	l	1	553	Five
207	H	5	1100	b	b	1	507	One
207	H	6	800	k	k	1	697	Four
207	H	7	800	j	j	1	483	Three
207	H	8	1100	h	h	1	505	Two
207	H	9	500	j	j	1	489	Three
207	H	10	950	k	k	1	489	Four
207	H	11	500	h	h	1	494	Two
207	H	12	500	l	l	1	502	Five
207	H	13	1100	k	k	1	494	Four
207	H	14	650	b	b	1	707	One
207	H	15	950	j	j	1	529	Three
207	H	16	800	l	l	1	1353	Five
207	H	17	950	b	b	1	806	One
207	H	18	1100	k	k	1	540	Four
207	H	19	1100	j	j	1	428	Three
207	H	20	950	l	l	1	617	Five
207	H	21	500	k	k	1	577	Four
207	H	22	500	b	b	1	617	One
207	H	23	650	h	h	1	566	Two
207	H	24	800	b	b	1	622	One
207	H	25	500	l	l	1	534	Five
207	H	26	650	h	h	1	508	Two
207	H	27	800	k	k	1	481	Four
207	H	28	800	b	b	1	473	One
207	H	29	950	j	j	1	430	Three
207	H	30	950	k	k	1	420	Four
207	H	31	800	h	h	1	462	Two
207	H	32	1100	l	l	1	502	Five
207	H	33	500	h	h	1	462	Two
207	H	34	650	b	b	1	468	One
207	H	35	1100	h	h	1	526	Two
207	H	36	1100	j	j	1	452	Three
207	H	37	500	b	b	1	513	One
207	H	38	800	l	l	1	526	Five
207	H	39	650	k	k	1	529	Four
207	H	40	950	l	l	1	641	Five
207	H	41	1100	b	b	1	558	One
207	H	42	650	k	k	1	630	Four
207	H	43	950	h	h	1	420	Two
207	H	44	650	j	j	1	385	Three
207	H	45	950	b	b	1	524	One
207	H	46	500	k	k	1	481	Four
207	H	47	500	j	j	1	502	Three
207	H	48	950	h	h	1	481	Two
207	H	49	1100	l	l	1	566	Five
207	H	50	800	j	k	0	470	Three
208	A	1	950	k	k	1	972	Four
208	A	2	800	h	h	1	663	Two
208	A	3	950	b	b	1	796	One
208	A	4	500	k	k	1	732	Four
208	A	5	1100	l	l	1	687	Five
208	A	6	500	h	h	1	650	Two
208	A	7	650	b	b	1	650	One
208	A	8	1100	j	j	1	775	Three
208	A	9	800	l	l	1	602	Five
208	A	10	1100	h	h	1	503	Two
208	A	11	500	b	b	1	679	One
208	A	12	650	k	k	1	772	Four
208	A	13	950	l	l	1	948	Five
208	A	14	1100	b	b	1	676	One
208	A	15	650	k	k	1	595	Four
208	A	16	950	h	h	1	663	Two
208	A	17	650	j	j	1	687	Three
208	A	18	650	l	l	1	662	Five
208	A	19	650	j	j	1	796	Three
208	A	20	950	k	k	1	881	Four
208	A	21	800	j	j	1	650	Three
208	A	22	1100	b	b	1	761	One
208	A	23	800	k	k	1	580	Four
208	A	24	950	h	h	1	697	Two
208	A	25	1100	l	l	1	734	Five
208	A	26	800	j	j	1	641	Three
208	A	27	1100	h	h	1	788	Two
208	A	28	500	j	k	0	633	Three
208	A	29	500	h	h	1	684	Two
208	A	30	500	l	l	1	790	Five
208	A	31	1100	k	k	1	596	Four
208	A	32	650	b	b	1	601	One
208	A	33	950	j	j	1	628	Three
208	A	34	800	l	l	1	604	Five
208	A	35	950	b	b	1	633	One
208	A	36	1100	k	k	1	1049	Four
208	A	37	1100	j	j	1	601	Three
208	A	38	950	l	l	1	1022	Five
208	A	39	500	k	k	1	724	Four
208	A	40	500	b	b	1	497	One
208	A	41	650	h	h	1	710	Two
208	A	42	800	b	b	1	524	One
208	A	43	500	l	l	1	993	Five
208	A	44	650	h	h	1	758	Two
208	A	45	800	k	k	1	644	Four
208	A	46	800	b	b	1	553	One
208	A	47	950	j	j	1	692	Three
208	A	48	800	h	h	1	559	Two
208	A	49	650	l	l	1	804	Five
208	A	50	500	j	j	1	703	Three
208	B	1	650	b	b	1	654	Five
208	B	2	650	j	j	1	867	Three
208	B	3	800	k	k	1	728	Two
208	B	4	650	b	b	1	907	Five
208	B	5	1100	l	l	1	550	One
208	B	6	800	h	h	1	779	Four
208	B	7	800	j	j	1	958	Three
208	B	8	1100	k	k	1	792	Two
208	B	9	500	j	j	1	803	Three
208	B	10	950	h	h	1	739	Four
208	B	11	500	k	k	1	755	Two
208	B	12	500	b	b	1	830	Five
208	B	13	1100	h	h	1	713	Four
208	B	14	650	l	l	1	737	One
208	B	15	950	j	j	1	675	Three
208	B	16	800	b	b	1	825	Five
208	B	17	950	l	l	1	707	One
208	B	18	1100	h	h	1	694	Four
208	B	19	1100	j	j	1	742	Three
208	B	20	950	b	b	1	665	Five
208	B	21	500	h	h	1	801	Four
208	B	22	500	l	l	1	798	One
208	B	23	650	k	k	1	582	Two
208	B	24	800	l	l	1	577	One
208	B	25	500	b	b	1	665	Five
208	B	26	650	k	k	1	822	Two
208	B	27	800	h	h	1	729	Four
208	B	28	800	l	l	1	673	One
208	B	29	950	j	k	0	1038	Three
208	B	30	950	h	h	1	1235	Four
208	B	31	800	k	k	1	649	Two
208	B	32	1100	b	b	1	790	Five
208	B	33	500	k	k	1	913	Two
208	B	34	650	l	l	1	609	One
208	B	35	1100	k	k	1	686	Two
208	B	36	1100	j	j	1	819	Three
208	B	37	500	l	l	1	835	One
208	B	38	800	b	b	1	825	Five
208	B	39	650	h	h	1	1086	Four
208	B	40	950	b	b	1	1158	Five
208	B	41	1100	l	l	1	665	One
208	B	42	650	h	h	1	1126	Four
208	B	43	950	k	k	1	1174	Two
208	B	44	650	j	j	1	707	Three
208	B	45	950	l	l	1	1065	One
208	B	46	500	h	h	1	649	Four
208	B	47	500	j	j	1	677	Three
208	B	48	950	k	k	1	1146	Two
208	B	49	1100	b	b	1	1029	Five
208	B	50	800	j	j	1	1402	Three
208	C	1	950	j	j	1	1105	Three
208	C	2	800	l	l	1	723	One
208	C	3	800	h	h	1	699	Four
208	C	4	650	k	k	1	721	Two
208	C	5	500	b	b	1	582	Five
208	C	6	800	l	l	1	577	One
208	C	7	650	k	k	1	750	Two
208	C	8	500	l	l	1	857	One
208	C	9	500	h	h	1	793	Four
208	C	10	950	b	b	1	798	Five
208	C	11	1100	j	j	1	665	Three
208	C	12	1100	h	h	1	729	Four
208	C	13	950	l	l	1	593	One
208	C	14	800	b	b	1	614	Five
208	C	15	950	j	j	1	729	Three
208	C	16	650	l	l	1	708	One
208	C	17	1100	h	h	1	654	Four
208	C	18	500	b	b	1	870	Five
208	C	19	500	k	k	1	857	Two
208	C	20	950	h	h	1	1004	Four
208	C	21	500	j	j	1	1657	Three
208	C	22	1100	k	k	1	705	Two
208	C	23	800	j	j	1	612	Three
208	C	24	800	h	h	1	1004	Four
208	C	25	1100	l	l	1	649	One
208	C	26	500	j	j	1	1190	Three
208	C	27	650	b	h	0	718	Five
208	C	28	800	k	k	1	948	Two
208	C	29	650	j	j	1	739	Three
208	C	30	650	b	b	1	584	Five
208	C	31	650	j	j	1	621	Three
208	C	32	950	k	k	1	760	Two
208	C	33	650	h	h	1	2307	Four
208	C	34	1100	l	l	1	1070	One
208	C	35	950	b	b	1	643	Five
208	C	36	650	h	h	1	1238	Four
208	C	37	800	b	b	1	939	Five
208	C	38	500	l	l	1	643	One
208	C	39	1100	j	j	1	728	Three
208	C	40	1100	k	k	1	734	Two
208	C	41	650	l	l	1	891	One
208	C	42	500	k	k	1	1088	Two
208	C	43	1100	b	b	1	638	Five
208	C	44	500	h	h	1	600	Four
208	C	45	950	l	l	1	728	One
208	C	46	800	k	k	1	504	Two
208	C	47	950	h	h	1	779	Four
208	C	48	800	j	j	1	702	Three
208	C	49	1100	b	b	1	566	Five
208	C	50	950	k	k	1	1038	Two
208	D	1	800	j	j	1	1601	Three
208	D	2	1100	l	l	1	540	Five
208	D	3	950	h	h	1	689	Two
208	D	4	500	j	j	1	862	Three
208	D	5	500	k	k	1	774	Four
208	D	6	950	b	b	1	697	One
208	D	7	650	j	j	1	817	Three
208	D	8	950	h	h	1	668	Two
208	D	9	650	k	k	1	1073	Four
208	D	10	1100	b	b	1	1012	One
208	D	11	950	l	l	1	601	Five
208	D	12	650	k	k	1	630	Four
208	D	13	800	l	l	1	852	Five
208	D	14	500	b	b	1	638	One
208	D	15	1100	j	j	1	750	Three
208	D	16	1100	h	h	1	574	Two
208	D	17	650	b	b	1	641	One
208	D	18	500	h	h	1	812	Two
208	D	19	1100	l	l	1	940	Five
208	D	20	800	h	h	1	628	Two
208	D	21	950	k	k	1	844	Four
208	D	22	950	j	j	1	833	Three
208	D	23	800	b	b	1	793	One
208	D	24	800	k	k	1	740	Four
208	D	25	650	h	h	1	611	Two
208	D	26	500	l	l	1	1022	Five
208	D	27	800	b	b	1	656	One
208	D	28	650	h	h	1	688	Two
208	D	29	500	b	b	1	851	One
208	D	30	500	k	k	1	838	Four
208	D	31	950	l	l	1	765	Five
208	D	32	1100	j	j	1	776	Three
208	D	33	1100	k	k	1	979	Four
208	D	34	950	b	b	1	696	One
208	D	35	800	l	l	1	669	Five
208	D	36	950	j	j	1	659	Three
208	D	37	650	b	b	1	726	One
208	D	38	1100	k	k	1	856	Four
208	D	39	500	l	l	1	859	Five
208	D	40	500	h	h	1	686	Two
208	D	41	950	k	k	1	1203	Four
208	D	42	500	j	j	1	744	Three
208	D	43	1100	h	h	1	766	Two
208	D	44	800	j	j	1	1499	Three
208	D	45	800	k	k	1	574	Four
208	D	46	1100	b	b	1	976	One
208	D	47	650	l	l	1	643	Five
208	D	48	800	h	h	1	910	Two
208	D	49	650	j	j	1	979	Three
208	D	50	650	l	l	1	686	Five
208	E	1	950	j	k	0	1007	Three
208	E	2	800	b	b	1	687	One
208	E	3	800	k	k	1	695	Four
208	E	4	650	h	h	1	884	Two
208	E	5	500	l	l	1	681	Five
208	E	6	800	b	b	1	561	One
208	E	7	650	h	h	1	676	Two
208	E	8	500	b	b	1	695	One
208	E	9	500	k	k	1	999	Four
208	E	10	950	l	l	1	716	Five
208	E	11	1100	j	j	1	655	Three
208	E	12	1100	k	k	1	791	Four
208	E	13	950	b	b	1	868	One
208	E	14	800	l	l	1	1281	Five
208	E	15	950	j	j	1	753	Three
208	E	16	650	b	b	1	729	One
208	E	17	1100	k	k	1	903	Four
208	E	18	500	l	l	1	711	Five
208	E	19	500	h	h	1	617	Two
208	E	20	950	k	k	1	724	Four
208	E	21	500	j	j	1	905	Three
208	E	22	1100	h	h	1	1161	Two
208	E	23	800	j	j	1	721	Three
208	E	24	800	k	k	1	585	Four
208	E	25	1100	b	b	1	745	One
208	E	26	500	j	j	1	977	Three
208	E	27	650	l	l	1	1055	Five
208	E	28	800	h	h	1	1057	Two
208	E	29	650	j	j	1	1639	Three
208	E	30	650	l	l	1	983	Five
208	E	31	650	j	j	1	787	Three
208	E	32	950	h	h	1	1057	Two
208	E	33	650	k	k	1	646	Four
208	E	34	1100	b	b	1	571	One
208	E	35	950	l	l	1	563	Five
208	E	36	650	k	k	1	950	Four
208	E	37	800	l	l	1	867	Five
208	E	38	500	b	b	1	678	One
208	E	39	1100	j	j	1	681	Three
208	E	40	1100	h	h	1	678	Two
208	E	41	650	b	b	1	934	One
208	E	42	500	h	h	1	950	Two
208	E	43	1100	l	l	1	601	Five
208	E	44	500	k	k	1	750	Four
208	E	45	950	b	b	1	2347	One
208	E	46	800	h	h	1	849	Two
208	E	47	950	k	k	1	721	Four
208	E	48	800	j	j	1	577	Three
208	E	49	1100	l	l	1	657	Five
208	E	50	950	h	h	1	675	Two
208	F	1	950	h	h	1	946	Four
208	F	2	800	k	k	1	845	Two
208	F	3	950	l	l	1	733	One
208	F	4	500	h	h	1	1090	Four
208	F	5	1100	b	b	1	992	Five
208	F	6	500	k	k	1	810	Two
208	F	7	650	l	l	1	797	One
208	F	8	1100	k	k	1	760	Two
208	F	9	1100	j	j	1	866	Three
208	F	10	500	l	l	1	746	One
208	F	11	800	b	b	1	861	Five
208	F	12	650	h	h	1	1058	Four
208	F	13	950	b	b	1	765	Five
208	F	14	1100	l	l	1	634	One
208	F	15	650	h	h	1	1594	Four
208	F	16	950	k	k	1	1072	Two
208	F	17	650	j	j	1	1120	Three
208	F	18	650	b	b	1	880	Five
208	F	19	650	j	j	1	2048	Three
208	F	20	950	h	h	1	1288	Four
208	F	21	800	j	j	1	816	Three
208	F	22	1100	l	l	1	1376	One
208	F	23	800	h	h	1	715	Four
208	F	24	950	k	k	1	872	Two
208	F	25	1100	b	b	1	947	Five
208	F	26	800	j	j	1	1053	Three
208	F	27	1100	k	k	1	1339	Two
208	F	28	500	j	j	1	787	Three
208	F	29	500	k	k	1	579	Two
208	F	30	500	b	b	1	667	Five
208	F	31	1100	h	h	1	555	Four
208	F	32	650	l	l	1	667	One
208	F	33	950	j	j	1	725	Three
208	F	34	800	b	b	1	653	Five
208	F	35	950	l	l	1	1013	One
208	F	36	1100	h	h	1	1019	Four
208	F	37	1100	j	j	1	603	Three
208	F	38	950	b	b	1	787	Five
208	F	39	500	h	h	1	699	Four
208	F	40	500	l	l	1	587	One
208	F	41	650	k	k	1	672	Two
208	F	42	800	l	l	1	1117	One
208	F	43	500	b	b	1	1040	Five
208	F	44	650	k	k	1	960	Two
208	F	45	800	h	h	1	877	Four
208	F	46	800	l	l	1	619	One
208	F	47	950	j	j	1	965	Three
208	F	48	800	k	k	1	773	Two
208	F	49	650	b	b	1	951	Five
208	F	50	500	j	j	1	1194	Three
208	G	1	800	j	j	1	980	Three
208	G	2	1100	b	b	1	1148	Five
208	G	3	950	k	k	1	938	Two
208	G	4	500	j	j	1	770	Three
208	G	5	500	h	h	1	671	Four
208	G	6	950	l	l	1	508	One
208	G	7	650	j	j	1	676	Three
208	G	8	950	k	k	1	770	Two
208	G	9	650	h	h	1	804	Four
208	G	10	1100	l	l	1	746	One
208	G	11	950	b	b	1	492	Five
208	G	12	650	h	h	1	847	Four
208	G	13	800	b	b	1	647	Five
208	G	14	500	l	l	1	757	One
208	G	15	1100	j	j	1	663	Three
208	G	16	1100	k	k	1	799	Two
208	G	17	650	l	l	1	935	One
208	G	18	500	k	k	1	863	Two
208	G	19	1100	b	b	1	671	Five
208	G	20	800	k	k	1	685	Two
208	G	21	950	h	h	1	861	Four
208	G	22	950	j	j	1	639	Three
208	G	23	800	l	l	1	661	One
208	G	24	800	h	h	1	823	Four
208	G	25	650	k	k	1	845	Two
208	G	26	500	b	b	1	658	Five
208	G	27	800	l	l	1	549	One
208	G	28	650	k	k	1	637	Two
208	G	29	500	l	l	1	815	One
208	G	30	500	h	h	1	1327	Four
208	G	31	950	b	b	1	863	Five
208	G	32	1100	j	j	1	1031	Three
208	G	33	1100	h	h	1	658	Four
208	G	34	950	l	l	1	1981	One
208	G	35	800	b	b	1	672	Five
208	G	36	950	j	j	1	1340	Three
208	G	37	650	l	l	1	985	One
208	G	38	1100	h	h	1	721	Four
208	G	39	500	b	b	1	975	Five
208	G	40	500	k	k	1	1039	Two
208	G	41	950	h	h	1	676	Four
208	G	42	500	j	j	1	1103	Three
208	G	43	1100	k	k	1	927	Two
208	G	44	800	j	j	1	663	Three
208	G	45	800	h	h	1	841	Four
208	G	46	1100	l	l	1	631	One
208	G	47	650	b	b	1	815	Five
208	G	48	800	k	k	1	1297	Two
208	G	49	650	j	j	1	639	Three
208	G	50	650	b	b	1	807	Five
208	H	1	650	l	b	0	1753	Five
208	H	2	650	j	j	1	1321	Three
208	H	3	800	h	h	1	1873	Two
208	H	4	650	l	l	1	689	Five
208	H	5	1100	b	b	1	582	One
208	H	6	800	k	k	1	761	Four
208	H	7	800	j	j	1	689	Three
208	H	8	1100	h	h	1	622	Two
208	H	9	500	j	j	1	646	Three
208	H	10	950	k	k	1	798	Four
208	H	11	500	h	h	1	721	Two
208	H	12	500	l	l	1	998	Five
208	H	13	1100	k	k	1	977	Four
208	H	14	650	b	b	1	822	One
208	H	15	950	j	j	1	969	Three
208	H	16	800	l	l	1	1033	Five
208	H	17	950	b	b	1	742	One
208	H	18	1100	k	k	1	1037	Four
208	H	19	1100	j	j	1	808	Three
208	H	20	950	l	l	1	864	Five
208	H	21	500	k	k	1	880	Four
208	H	22	500	b	b	1	549	One
208	H	23	650	h	h	1	405	Two
208	H	24	800	b	b	1	501	One
208	H	25	500	l	l	1	829	Five
208	H	26	650	h	h	1	1021	Two
208	H	27	800	k	k	1	888	Four
208	H	28	800	b	b	1	608	One
208	H	29	950	j	j	1	1120	Three
208	H	30	950	k	k	1	1232	Four
208	H	31	800	h	h	1	878	Two
208	H	32	1100	l	l	1	648	Five
208	H	33	500	h	h	1	2638	Two
208	H	34	650	b	b	1	486	One
208	H	35	1100	h	h	1	699	Two
208	H	36	1100	j	j	1	747	Three
208	H	37	500	b	b	1	662	One
208	H	38	800	l	l	1	976	Five
208	H	39	650	k	k	1	918	Four
208	H	40	950	l	l	1	563	Five
208	H	41	1100	b	b	1	624	One
208	H	42	650	k	k	1	726	Four
208	H	43	950	h	h	1	806	Two
208	H	44	650	j	j	1	1640	Three
208	H	45	950	b	b	1	753	One
208	H	46	500	k	k	1	1219	Four
208	H	47	500	j	j	1	731	Three
208	H	48	950	h	h	1	747	Two
208	H	49	1100	l	l	1	990	Five
208	H	50	800	j	j	1	1003	Three
209	A	1	950	k	k	1	529	Four
209	A	2	800	h	h	1	529	Two
209	A	3	950	b	b	1	649	One
209	A	4	500	k	k	1	727	Four
209	A	5	1100	l	l	1	564	Five
209	A	6	500	h	h	1	673	Two
209	A	7	650	b	b	1	473	One
209	A	8	1100	j	j	1	556	Three
209	A	9	800	l	l	1	937	Five
209	A	10	1100	h	h	1	529	Two
209	A	11	500	b	b	1	599	One
209	A	12	650	k	k	1	655	Four
209	A	13	950	l	l	1	521	Five
209	A	14	1100	b	b	1	535	One
209	A	15	650	k	k	1	572	Four
209	A	16	950	h	h	1	668	Two
209	A	17	650	j	j	1	604	Three
209	A	18	650	l	l	1	575	Five
209	A	19	650	j	j	1	660	Three
209	A	20	950	k	k	1	615	Four
209	A	21	800	j	j	1	785	Three
209	A	22	1100	b	b	1	505	One
209	A	23	800	k	k	1	580	Four
209	A	24	950	h	h	1	631	Two
209	A	25	1100	l	l	1	562	Five
209	A	26	800	j	j	1	754	Three
209	A	27	1100	h	h	1	580	Two
209	A	28	500	j	j	1	1004	Three
209	A	29	500	h	h	1	658	Two
209	A	30	500	l	l	1	658	Five
209	A	31	1100	k	k	1	730	Four
209	A	32	650	b	b	1	820	One
209	A	33	950	j	j	1	607	Three
209	A	34	800	l	l	1	639	Five
209	A	35	950	b	b	1	580	One
209	A	36	1100	k	k	1	700	Four
209	A	37	1100	j	j	1	692	Three
209	A	38	950	l	l	1	564	Five
209	A	39	500	k	k	1	666	Four
209	A	40	500	b	b	1	785	One
209	A	41	650	h	h	1	622	Two
209	A	42	800	b	b	1	745	One
209	A	43	500	l	l	1	849	Five
209	A	44	650	h	h	1	1099	Two
209	A	45	800	k	k	1	598	Four
209	A	46	800	b	b	1	555	One
209	A	47	950	j	j	1	625	Three
209	A	48	800	h	h	1	523	Two
209	A	49	650	l	l	1	694	Five
209	A	50	500	j	j	1	782	Three
209	B	1	650	b	b	1	861	Five
209	B	2	650	j	j	1	715	Three
209	B	3	800	k	k	1	536	Two
209	B	4	650	b	b	1	653	Five
209	B	5	1100	l	l	1	509	One
209	B	6	800	h	h	1	571	Four
209	B	7	800	j	j	1	587	Three
209	B	8	1100	k	k	1	533	Two
209	B	9	500	j	j	1	709	Three
209	B	10	950	h	h	1	627	Four
209	B	11	500	k	k	1	710	Two
209	B	12	500	b	b	1	792	Five
209	B	13	1100	h	h	1	651	Four
209	B	14	650	l	l	1	622	One
209	B	15	950	j	j	1	672	Three
209	B	16	800	b	b	1	710	Five
209	B	17	950	l	l	1	531	One
209	B	18	1100	h	h	1	592	Four
209	B	19	1100	j	j	1	627	Three
209	B	20	950	b	b	1	456	Five
209	B	21	500	h	h	1	592	Four
209	B	22	500	l	l	1	779	One
209	B	23	650	k	k	1	584	Two
209	B	24	800	l	l	1	675	One
209	B	25	500	b	b	1	718	Five
209	B	26	650	k	k	1	606	Two
209	B	27	800	h	h	1	558	Four
209	B	28	800	l	l	1	667	One
209	B	29	950	j	j	1	456	Three
209	B	30	950	h	h	1	635	Four
209	B	31	800	k	k	1	648	Two
209	B	32	1100	b	b	1	702	Five
209	B	33	500	k	j	0	1374	Two
209	B	34	650	l	l	1	571	One
209	B	35	1100	k	k	1	544	Two
209	B	36	1100	j	j	1	600	Three
209	B	37	500	l	l	1	779	One
209	B	38	800	b	b	1	718	Five
209	B	39	650	h	h	1	878	Four
209	B	40	950	b	b	1	691	Five
209	B	41	1100	l	l	1	528	One
209	B	42	650	h	h	1	891	Four
209	B	43	950	k	k	1	1267	Two
209	B	44	650	j	j	1	576	Three
209	B	45	950	l	l	1	459	One
209	B	46	500	h	h	1	779	Four
209	B	47	500	j	j	1	987	Three
209	B	48	950	k	k	1	574	Two
209	B	49	1100	b	b	1	578	Five
209	B	50	800	j	j	1	685	Three
209	C	1	950	j	j	1	944	Three
209	C	2	800	l	l	1	499	One
209	C	3	800	h	h	1	573	Four
209	C	4	650	k	j	0	659	Two
209	C	5	500	b	b	1	739	Five
209	C	6	800	l	l	1	557	One
209	C	7	650	k	k	1	605	Two
209	C	8	500	l	l	1	675	One
209	C	9	500	h	h	1	621	Four
209	C	10	950	b	b	1	1008	Five
209	C	11	1100	j	k	0	909	Three
209	C	12	1100	h	h	1	1448	Four
209	C	13	950	l	l	1	608	One
209	C	14	800	b	b	1	616	Five
209	C	15	950	j	j	1	1075	Three
209	C	16	650	l	l	1	515	One
209	C	17	1100	h	h	1	638	Four
209	C	18	500	b	b	1	896	Five
209	C	19	500	k	k	1	640	Two
209	C	20	950	h	h	1	576	Four
209	C	21	500	j	j	1	696	Three
209	C	22	1100	k	k	1	512	Two
209	C	23	800	j	j	1	702	Three
209	C	24	800	h	h	1	568	Four
209	C	25	1100	l	l	1	614	One
209	C	26	500	j	j	1	907	Three
209	C	27	650	b	b	1	1112	Five
209	C	28	800	k	j	0	1094	Two
209	C	29	650	j	j	1	856	Three
209	C	30	650	b	b	1	662	Five
209	C	31	650	j	j	1	723	Three
209	C	32	950	k	k	1	379	Two
209	C	33	650	h	h	1	601	Four
209	C	34	1100	l	l	1	395	One
209	C	35	950	b	b	1	384	Five
209	C	36	650	h	h	1	677	Four
209	C	37	800	b	b	1	698	Five
209	C	38	500	l	l	1	634	One
209	C	39	1100	j	j	1	925	Three
209	C	40	1100	k	k	1	1210	Two
209	C	41	650	l	l	1	549	One
209	C	42	500	k	j	0	672	Two
209	C	43	1100	b	b	1	530	Five
209	C	44	500	h	h	1	592	Four
209	C	45	950	l	l	1	629	One
209	C	46	800	k	k	1	706	Two
209	C	47	950	h	h	1	557	Four
209	C	48	800	j	j	1	738	Three
209	C	49	1100	b	b	1	554	Five
209	C	50	950	k	k	1	920	Two
209	D	1	800	j	j	1	862	Three
209	D	2	1100	l	l	1	686	Five
209	D	3	950	h	h	1	566	Two
209	D	4	500	j	j	1	812	Three
209	D	5	500	k	k	1	585	Four
209	D	6	950	b	b	1	700	One
209	D	7	650	j	j	1	1033	Three
209	D	8	950	h	h	1	629	Two
209	D	9	650	k	k	1	645	Four
209	D	10	1100	b	b	1	995	One
209	D	11	950	l	l	1	928	Five
209	D	12	650	k	k	1	731	Four
209	D	13	800	l	l	1	931	Five
209	D	14	500	b	b	1	680	One
209	D	15	1100	j	j	1	717	Three
209	D	16	1100	h	h	1	584	Two
209	D	17	650	b	b	1	1101	One
209	D	18	500	h	h	1	485	Two
209	D	19	1100	l	l	1	619	Five
209	D	20	800	h	h	1	885	Two
209	D	21	950	k	k	1	534	Four
209	D	22	950	j	j	1	680	Three
209	D	23	800	b	b	1	1024	One
209	D	24	800	k	k	1	851	Four
209	D	25	650	h	h	1	1198	Two
209	D	26	500	l	l	1	680	Five
209	D	27	800	b	b	1	1072	One
209	D	28	650	h	h	1	656	Two
209	D	29	500	b	b	1	680	One
209	D	30	500	k	k	1	806	Four
209	D	31	950	l	l	1	574	Five
209	D	32	1100	j	j	1	798	Three
209	D	33	1100	k	k	1	680	Four
209	D	34	950	b	b	1	568	One
209	D	35	800	l	l	1	544	Five
209	D	36	950	j	k	0	771	Three
209	D	37	650	b	b	1	590	One
209	D	38	1100	k	k	1	680	Four
209	D	39	500	l	l	1	659	Five
209	D	40	500	h	h	1	587	Two
209	D	41	950	k	k	1	646	Four
209	D	42	500	j	j	1	619	Three
209	D	43	1100	h	h	1	659	Two
209	D	44	800	j	j	1	1102	Three
209	D	45	800	k	k	1	721	Four
209	D	46	1100	b	b	1	666	One
209	D	47	650	l	l	1	600	Five
209	D	48	800	h	h	1	821	Two
209	D	49	650	j	j	1	890	Three
209	D	50	650	l	l	1	1069	Five
209	E	1	950	j	j	1	640	Three
209	E	2	800	b	b	1	533	One
209	E	3	800	k	k	1	557	Four
209	E	4	650	h	j	0	565	Two
209	E	5	500	l	l	1	658	Five
209	E	6	800	b	b	1	509	One
209	E	7	650	h	h	1	485	Two
209	E	8	500	b	b	1	610	One
209	E	9	500	k	k	1	607	Four
209	E	10	950	l	l	1	623	Five
209	E	11	1100	j	j	1	703	Three
209	E	12	1100	k	k	1	551	Four
209	E	13	950	b	b	1	556	One
209	E	14	800	l	l	1	897	Five
209	E	15	950	j	j	1	812	Three
209	E	16	650	b	b	1	711	One
209	E	17	1100	k	k	1	721	Four
209	E	18	500	l	l	1	639	Five
209	E	19	500	h	h	1	689	Two
209	E	20	950	k	k	1	1033	Four
209	E	21	500	j	j	1	556	Three
209	E	22	1100	h	h	1	1103	Two
209	E	23	800	j	j	1	593	Three
209	E	24	800	k	k	1	495	Four
209	E	25	1100	b	b	1	647	One
209	E	26	500	j	j	1	748	Three
209	E	27	650	l	l	1	964	Five
209	E	28	800	h	h	1	540	Two
209	E	29	650	j	j	1	570	Three
209	E	30	650	l	l	1	692	Five
209	E	31	650	j	j	1	559	Three
209	E	32	950	h	h	1	676	Two
209	E	33	650	k	l	0	1332	Four
209	E	34	1100	b	b	1	570	One
209	E	35	950	l	l	1	626	Five
209	E	36	650	k	k	1	823	Four
209	E	37	800	l	l	1	626	Five
209	E	38	500	b	b	1	658	One
209	E	39	1100	j	h	0	594	Three
209	E	40	1100	h	h	1	412	Two
209	E	41	650	b	b	1	535	One
209	E	42	500	h	h	1	727	Two
209	E	43	1100	l	l	1	588	Five
209	E	44	500	k	k	1	743	Four
209	E	45	950	b	b	1	562	One
209	E	46	800	h	h	1	410	Two
209	E	47	950	k	k	1	578	Four
209	E	48	800	j	h	0	460	Three
209	E	49	1100	l	l	1	836	Five
209	E	50	950	h	h	1	634	Two
209	F	1	950	h	h	1	1263	Four
209	F	2	800	k	k	1	681	Two
209	F	3	950	l	l	1	577	One
209	F	4	500	h	h	1	737	Four
209	F	5	1100	b	b	1	545	Five
209	F	6	500	k	k	1	553	Two
209	F	7	650	l	l	1	521	One
209	F	8	1100	k	k	1	567	Two
209	F	9	1100	j	j	1	756	Three
209	F	10	500	l	l	1	599	One
209	F	11	800	b	b	1	1004	Five
209	F	12	650	h	h	1	535	Four
209	F	13	950	b	b	1	553	Five
209	F	14	1100	l	l	1	804	One
209	F	15	650	h	h	1	623	Four
209	F	16	950	k	k	1	705	Two
209	F	17	650	j	j	1	551	Three
209	F	18	650	b	b	1	686	Five
209	F	19	650	j	j	1	744	Three
209	F	20	950	h	b	0	627	Four
209	F	21	800	j	j	1	720	Three
209	F	22	1100	l	l	1	510	One
209	F	23	800	h	h	1	483	Four
209	F	24	950	k	k	1	555	Two
209	F	25	1100	b	b	1	542	Five
209	F	26	800	j	j	1	864	Three
209	F	27	1100	k	k	1	600	Two
209	F	28	500	j	j	1	710	Three
209	F	29	500	k	k	1	872	Two
209	F	30	500	b	b	1	1163	Five
209	F	31	1100	h	h	1	560	Four
209	F	32	650	l	l	1	747	One
209	F	33	950	j	j	1	752	Three
209	F	34	800	b	b	1	1166	Five
209	F	35	950	l	l	1	710	One
209	F	36	1100	h	h	1	713	Four
209	F	37	1100	j	j	1	715	Three
209	F	38	950	b	b	1	657	Five
209	F	39	500	h	h	1	713	Four
209	F	40	500	l	l	1	563	One
209	F	41	650	k	k	1	862	Two
209	F	42	800	l	l	1	569	One
209	F	43	500	b	b	1	990	Five
209	F	44	650	k	k	1	846	Two
209	F	45	800	h	h	1	990	Four
209	F	46	800	l	l	1	747	One
209	F	47	950	j	j	1	633	Three
209	F	48	800	k	k	1	486	Two
209	F	49	650	b	h	0	457	Five
209	F	50	500	j	j	1	681	Three
209	G	1	800	j	j	1	651	Three
209	G	2	1100	b	b	1	633	Five
209	G	3	950	k	k	1	814	Two
209	G	4	500	j	j	1	766	Three
209	G	5	500	h	h	1	667	Four
209	G	6	950	l	l	1	625	One
209	G	7	650	j	j	1	614	Three
209	G	8	950	k	k	1	569	Two
209	G	9	650	h	h	1	716	Four
209	G	10	1100	l	l	1	702	One
209	G	11	950	b	b	1	585	Five
209	G	12	650	h	h	1	678	Four
209	G	13	800	b	b	1	804	Five
209	G	14	500	l	l	1	681	One
209	G	15	1100	j	j	1	550	Three
209	G	16	1100	k	j	0	1009	Two
209	G	17	650	l	l	1	1196	One
209	G	18	500	k	k	1	686	Two
209	G	19	1100	b	b	1	580	Five
209	G	20	800	k	k	1	718	Two
209	G	21	950	h	h	1	660	Four
209	G	22	950	j	j	1	830	Three
209	G	23	800	l	l	1	564	One
209	G	24	800	h	h	1	756	Four
209	G	25	650	k	k	1	724	Two
209	G	26	500	b	b	1	913	Five
209	G	27	800	l	l	1	551	One
209	G	28	650	k	k	1	847	Two
209	G	29	500	l	l	1	772	One
209	G	30	500	h	h	1	641	Four
209	G	31	950	b	b	1	497	Five
209	G	32	1100	j	j	1	785	Three
209	G	33	1100	h	h	1	865	Four
209	G	34	950	l	l	1	564	One
209	G	35	800	b	b	1	772	Five
209	G	36	950	j	h	0	620	Three
209	G	37	650	l	l	1	601	One
209	G	38	1100	h	h	1	534	Four
209	G	39	500	b	b	1	614	Five
209	G	40	500	k	k	1	678	Two
209	G	41	950	h	h	1	811	Four
209	G	42	500	j	j	1	760	Three
209	G	43	1100	k	k	1	718	Two
209	G	44	800	j	j	1	651	Three
209	G	45	800	h	h	1	403	Four
209	G	46	1100	l	l	1	577	One
209	G	47	650	b	b	1	1854	Five
209	G	48	800	k	k	1	1169	Two
209	G	49	650	j	j	1	811	Three
209	G	50	650	b	b	1	654	Five
209	H	1	650	l	b	0	637	Five
209	H	2	650	j	j	1	693	Three
209	H	3	800	h	h	1	845	Two
209	H	4	650	l	l	1	551	Five
209	H	5	1100	b	b	1	698	One
209	H	6	800	k	k	1	677	Four
209	H	7	800	j	j	1	690	Three
209	H	8	1100	h	h	1	439	Two
209	H	9	500	j	j	1	826	Three
209	H	10	950	k	k	1	564	Four
209	H	11	500	h	h	1	889	Two
209	H	12	500	l	l	1	774	Five
209	H	13	1100	k	k	1	758	Four
209	H	14	650	b	b	1	1335	One
209	H	15	950	j	j	1	521	Three
209	H	16	800	l	l	1	681	Five
209	H	17	950	b	b	1	745	One
209	H	18	1100	k	k	1	625	Four
209	H	19	1100	j	j	1	609	Three
209	H	20	950	l	l	1	937	Five
209	H	21	500	k	j	0	705	Four
209	H	22	500	b	b	1	1105	One
209	H	23	650	h	h	1	519	Two
209	H	24	800	b	b	1	604	One
209	H	25	500	l	l	1	577	Five
209	H	26	650	h	h	1	743	Two
209	H	27	800	k	k	1	1233	Four
209	H	28	800	b	b	1	567	One
209	H	29	950	j	j	1	791	Three
209	H	30	950	k	k	1	868	Four
209	H	31	800	h	h	1	721	Two
209	H	32	1100	l	l	1	519	Five
209	H	33	500	h	h	1	897	Two
209	H	34	650	b	b	1	639	One
209	H	35	1100	h	h	1	858	Two
209	H	36	1100	j	j	1	666	Three
209	H	37	500	b	b	1	882	One
209	H	38	800	l	l	1	730	Five
209	H	39	650	k	k	1	1380	Four
209	H	40	950	l	l	1	591	Five
209	H	41	1100	b	b	1	594	One
209	H	42	650	k	k	1	1074	Four
209	H	43	950	h	h	1	647	Two
209	H	44	650	j	j	1	786	Three
209	H	45	950	b	b	1	620	One
209	H	46	500	k	k	1	876	Four
209	H	47	500	j	j	1	854	Three
209	H	48	950	h	h	1	545	Two
209	H	49	1100	l	l	1	881	Five
209	H	50	800	j	j	1	673	Three
210	A	1	950	k	k	1	660	Four
210	A	2	800	h	h	1	764	Two
210	A	3	950	b	b	1	679	One
210	A	4	500	k	k	1	823	Four
210	A	5	1100	l	l	1	1044	Five
210	A	6	500	h	h	1	585	Two
210	A	7	650	b	b	1	511	One
210	A	8	1100	j	j	1	2367	Three
210	A	9	800	l	l	1	868	Five
210	A	10	1100	h	h	1	713	Two
210	A	11	500	b	b	1	577	One
210	A	12	650	k	k	1	580	Four
210	A	13	950	l	l	1	759	Five
210	A	14	1100	b	b	1	553	One
210	A	15	650	k	k	1	815	Four
210	A	16	950	h	h	1	452	Two
210	A	17	650	j	j	1	713	Three
210	A	18	650	l	l	1	833	Five
210	A	19	650	j	j	1	783	Three
210	A	20	950	k	k	1	875	Four
210	A	21	800	j	j	1	497	Three
210	A	22	1100	b	b	1	644	One
210	A	23	800	k	k	1	814	Four
210	A	24	950	h	h	1	727	Two
210	A	25	1100	l	l	1	592	Five
210	A	26	800	j	j	1	785	Three
210	A	27	1100	h	h	1	603	Two
210	A	28	500	j	j	1	1062	Three
210	A	29	500	h	h	1	459	Two
210	A	30	500	l	l	1	769	Five
210	A	31	1100	k	k	1	678	Four
210	A	32	650	b	b	1	582	One
210	A	33	950	j	j	1	838	Three
210	A	34	800	l	l	1	793	Five
210	A	35	950	b	h	0	707	One
210	A	36	1100	k	k	1	846	Four
210	A	37	1100	j	j	1	625	Three
210	A	38	950	l	l	1	843	Five
210	A	39	500	k	k	1	905	Four
210	A	40	500	b	h	0	747	One
210	A	41	650	h	h	1	729	Two
210	A	42	800	b	b	1	662	One
210	A	43	500	l	l	1	854	Five
210	A	44	650	h	h	1	777	Two
210	A	45	800	k	k	1	769	Four
210	A	46	800	b	b	1	598	One
210	A	47	950	j	j	1	795	Three
210	A	48	800	h	h	1	633	Two
210	A	49	650	l	l	1	918	Five
210	A	50	500	j	j	1	705	Three
210	B	1	650	b	b	1	708	Five
210	B	2	650	j	j	1	3428	Three
210	B	3	800	k	k	1	841	Two
210	B	4	650	b	b	1	788	Five
210	B	5	1100	l	l	1	695	One
210	B	6	800	h	h	1	585	Four
210	B	7	800	j	j	1	1252	Three
210	B	8	1100	k	k	1	736	Two
210	B	9	500	j	j	1	1129	Three
210	B	10	950	h	h	1	401	Four
210	B	11	500	k	k	1	806	Two
210	B	12	500	b	b	1	563	Five
210	B	13	1100	h	h	1	801	Four
210	B	14	650	l	l	1	619	One
210	B	15	950	j	h	0	598	Three
210	B	16	800	b	b	1	995	Five
210	B	17	950	l	l	1	849	One
210	B	18	1100	h	h	1	974	Four
210	B	19	1100	j	j	1	470	Three
210	B	20	950	b	b	1	699	Five
210	B	21	500	h	h	1	667	Four
210	B	22	500	l	l	1	638	One
210	B	23	650	k	k	1	478	Two
210	B	24	800	l	l	1	747	One
210	B	25	500	b	b	1	718	Five
210	B	26	650	k	j	0	654	Two
210	B	27	800	h	h	1	889	Four
210	B	28	800	l	l	1	641	One
210	B	29	950	j	j	1	985	Three
210	B	30	950	h	h	1	580	Four
210	B	31	800	k	k	1	1094	Two
210	B	32	1100	b	b	1	846	Five
210	B	33	500	k	k	1	884	Two
210	B	34	650	l	l	1	574	One
210	B	35	1100	k	k	1	534	Two
210	B	36	1100	j	j	1	670	Three
210	B	37	500	l	l	1	633	One
210	B	38	800	b	b	1	790	Five
210	B	39	650	h	h	1	718	Four
210	B	40	950	b	b	1	764	Five
210	B	41	1100	l	l	1	545	One
210	B	42	650	h	b	0	1054	Four
210	B	43	950	k	k	1	993	Two
210	B	44	650	j	j	1	553	Three
210	B	45	950	l	l	1	637	One
210	B	46	500	h	h	1	888	Four
210	B	47	500	j	j	1	909	Three
210	B	48	950	k	k	1	587	Two
210	B	49	1100	b	b	1	670	Five
210	B	50	800	j	j	1	1571	Three
210	C	1	950	j	j	1	743	Three
210	C	2	800	l	l	1	575	One
210	C	3	800	h	h	1	772	Four
210	C	4	650	k	k	1	780	Two
210	C	5	500	b	b	1	738	Five
210	C	6	800	l	l	1	570	One
210	C	7	650	k	k	1	754	Two
210	C	8	500	l	l	1	566	One
210	C	9	500	h	h	1	759	Four
210	C	10	950	b	b	1	681	Five
210	C	11	1100	j	j	1	1118	Three
210	C	12	1100	h	h	1	865	Four
210	C	13	950	l	l	1	649	One
210	C	14	800	b	b	1	652	Five
210	C	15	950	j	j	1	857	Three
210	C	16	650	l	l	1	596	One
210	C	17	1100	h	h	1	1212	Four
210	C	18	500	b	b	1	566	Five
210	C	19	500	k	k	1	614	Two
210	C	20	950	h	h	1	940	Four
210	C	21	500	j	j	1	1366	Three
210	C	22	1100	k	k	1	772	Two
210	C	23	800	j	j	1	881	Three
210	C	24	800	h	h	1	929	Four
210	C	25	1100	l	l	1	663	One
210	C	26	500	j	j	1	711	Three
210	C	27	650	b	b	1	1108	Five
210	C	28	800	k	k	1	593	Two
210	C	29	650	j	j	1	657	Three
210	C	30	650	b	b	1	753	Five
210	C	31	650	j	j	1	809	Three
210	C	32	950	k	k	1	695	Two
210	C	33	650	h	h	1	844	Four
210	C	34	1100	l	l	1	564	One
210	C	35	950	b	b	1	812	Five
210	C	36	650	h	h	1	1417	Four
210	C	37	800	b	b	1	817	Five
210	C	38	500	l	k	0	559	One
210	C	39	1100	j	j	1	894	Three
210	C	40	1100	k	k	1	857	Two
210	C	41	650	l	l	1	620	One
210	C	42	500	k	k	1	959	Two
210	C	43	1100	b	b	1	1132	Five
210	C	44	500	h	h	1	841	Four
210	C	45	950	l	l	1	699	One
210	C	46	800	k	k	1	1007	Two
210	C	47	950	h	h	1	790	Four
210	C	48	800	j	j	1	659	Three
210	C	49	1100	b	b	1	619	Five
210	C	50	950	k	k	1	609	Two
210	D	1	800	j	j	1	999	Three
210	D	2	1100	l	l	1	677	Five
210	D	3	950	h	h	1	767	Two
210	D	4	500	j	j	1	1128	Three
210	D	5	500	k	k	1	826	Four
210	D	6	950	b	b	1	589	One
210	D	7	650	j	j	1	1592	Three
210	D	8	950	h	h	1	773	Two
210	D	9	650	k	k	1	941	Four
210	D	10	1100	b	b	1	450	One
210	D	11	950	l	l	1	736	Five
210	D	12	650	k	k	1	1925	Four
210	D	13	800	l	l	1	981	Five
210	D	14	500	b	b	1	834	One
210	D	15	1100	j	j	1	868	Three
210	D	16	1100	h	h	1	633	Two
210	D	17	650	b	b	1	653	One
210	D	18	500	h	h	1	623	Two
210	D	19	1100	l	l	1	1119	Five
210	D	20	800	h	h	1	633	Two
210	D	21	950	k	k	1	850	Four
210	D	22	950	j	j	1	1105	Three
210	D	23	800	b	b	1	632	One
210	D	24	800	k	k	1	887	Four
210	D	25	650	h	h	1	641	Two
210	D	26	500	l	l	1	863	Five
210	D	27	800	b	b	1	567	One
210	D	28	650	h	h	1	937	Two
210	D	29	500	b	b	1	583	One
210	D	30	500	k	k	1	628	Four
210	D	31	950	l	l	1	961	Five
210	D	32	1100	j	h	0	804	Three
210	D	33	1100	k	k	1	876	Four
210	D	34	950	b	b	1	641	One
210	D	35	800	l	l	1	817	Five
210	D	36	950	j	j	1	1113	Three
210	D	37	650	b	b	1	583	One
210	D	38	1100	k	k	1	871	Four
210	D	39	500	l	l	1	812	Five
210	D	40	500	h	h	1	815	Two
210	D	41	950	k	k	1	932	Four
210	D	42	500	j	j	1	676	Three
210	D	43	1100	h	h	1	746	Two
210	D	44	800	j	j	1	839	Three
210	D	45	800	k	k	1	676	Four
210	D	46	1100	b	b	1	996	One
210	D	47	650	l	l	1	887	Five
210	D	48	800	h	h	1	751	Two
210	D	49	650	j	j	1	738	Three
210	D	50	650	l	l	1	674	Five
210	E	1	950	j	j	1	821	Three
210	E	2	800	b	b	1	546	One
210	E	3	800	k	k	1	642	Four
210	E	4	650	h	h	1	1013	Two
210	E	5	500	l	l	1	725	Five
210	E	6	800	b	b	1	893	One
210	E	7	650	h	h	1	490	Two
210	E	8	500	b	b	1	519	One
210	E	9	500	k	k	1	861	Four
210	E	10	950	l	l	1	645	Five
210	E	11	1100	j	j	1	946	Three
210	E	12	1100	k	k	1	807	Four
210	E	13	950	b	b	1	789	One
210	E	14	800	l	l	1	663	Five
210	E	15	950	j	j	1	655	Three
210	E	16	650	b	b	1	650	One
210	E	17	1100	k	k	1	639	Four
210	E	18	500	l	l	1	698	Five
210	E	19	500	h	h	1	463	Two
210	E	20	950	k	k	1	826	Four
210	E	21	500	j	j	1	650	Three
210	E	22	1100	h	j	0	759	Two
210	E	23	800	j	j	1	877	Three
210	E	24	800	k	k	1	834	Four
210	E	25	1100	b	b	1	605	One
210	E	26	500	j	j	1	914	Three
210	E	27	650	l	l	1	818	Five
210	E	28	800	h	h	1	661	Two
210	E	29	650	j	j	1	700	Three
210	E	30	650	l	l	1	719	Five
210	E	31	650	j	j	1	985	Three
210	E	32	950	h	h	1	591	Two
210	E	33	650	k	k	1	933	Four
210	E	34	1100	b	b	1	586	One
210	E	35	950	l	l	1	692	Five
210	E	36	650	k	k	1	711	Four
210	E	37	800	l	l	1	697	Five
210	E	38	500	b	b	1	644	One
210	E	39	1100	j	j	1	657	Three
210	E	40	1100	h	h	1	1559	Two
210	E	41	650	b	b	1	801	One
210	E	42	500	h	h	1	769	Two
210	E	43	1100	l	l	1	801	Five
210	E	44	500	k	k	1	905	Four
210	E	45	950	b	h	0	647	One
210	E	46	800	h	h	1	609	Two
210	E	47	950	k	k	1	788	Four
210	E	48	800	j	j	1	831	Three
210	E	49	1100	l	l	1	663	Five
210	E	50	950	h	h	1	617	Two
210	F	1	950	h	h	1	938	Four
210	F	2	800	k	k	1	916	Two
210	F	3	950	l	l	1	449	One
210	F	4	500	h	h	1	631	Four
210	F	5	1100	b	b	1	634	Five
210	F	6	500	k	k	1	724	Two
210	F	7	650	l	l	1	503	One
210	F	8	1100	k	k	1	903	Two
210	F	9	1100	j	j	1	639	Three
210	F	10	500	l	l	1	530	One
210	F	11	800	b	b	1	698	Five
210	F	12	650	h	h	1	439	Four
210	F	13	950	b	b	1	732	Five
210	F	14	1100	l	l	1	626	One
210	F	15	650	h	h	1	791	Four
210	F	16	950	k	k	1	668	Two
210	F	17	650	j	j	1	716	Three
210	F	18	650	b	b	1	716	Five
210	F	19	650	j	j	1	1204	Three
210	F	20	950	h	h	1	572	Four
210	F	21	800	j	h	0	668	Three
210	F	22	1100	l	l	1	1047	One
210	F	23	800	h	h	1	1103	Four
210	F	24	950	k	k	1	706	Two
210	F	25	1100	b	b	1	770	Five
210	F	26	800	j	j	1	754	Three
210	F	27	1100	k	k	1	685	Two
210	F	28	500	j	k	0	714	Three
210	F	29	500	k	k	1	701	Two
210	F	30	500	b	b	1	733	Five
210	F	31	1100	h	h	1	746	Four
210	F	32	650	l	l	1	663	One
210	F	33	950	j	j	1	658	Three
210	F	34	800	b	b	1	709	Five
210	F	35	950	l	l	1	602	One
210	F	36	1100	h	h	1	791	Four
210	F	37	1100	j	j	1	746	Three
210	F	38	950	b	b	1	613	Five
210	F	39	500	h	h	1	642	Four
210	F	40	500	l	l	1	559	One
210	F	41	650	k	k	1	574	Two
210	F	42	800	l	l	1	529	One
210	F	43	500	b	b	1	806	Five
210	F	44	650	k	k	1	721	Two
210	F	45	800	h	h	1	689	Four
210	F	46	800	l	l	1	513	One
210	F	47	950	j	j	1	711	Three
210	F	48	800	k	k	1	484	Two
210	F	49	650	b	b	1	711	Five
210	F	50	500	j	j	1	577	Three
210	G	1	800	j	j	1	803	Three
210	G	2	1100	b	b	1	829	Five
210	G	3	950	k	k	1	555	Two
210	G	4	500	j	j	1	931	Three
210	G	5	500	h	h	1	888	Four
210	G	6	950	l	l	1	675	One
210	G	7	650	j	j	1	797	Three
210	G	8	950	k	k	1	704	Two
210	G	9	650	h	h	1	981	Four
210	G	10	1100	l	l	1	787	One
210	G	11	950	b	b	1	592	Five
210	G	12	650	h	h	1	888	Four
210	G	13	800	b	b	1	733	Five
210	G	14	500	l	l	1	968	One
210	G	15	1100	j	j	1	1418	Three
210	G	16	1100	k	k	1	698	Two
210	G	17	650	l	l	1	951	One
210	G	18	500	k	k	1	690	Two
210	G	19	1100	b	b	1	858	Five
210	G	20	800	k	k	1	759	Two
210	G	21	950	h	h	1	733	Four
210	G	22	950	j	j	1	626	Three
210	G	23	800	l	l	1	621	One
210	G	24	800	h	h	1	813	Four
210	G	25	650	k	k	1	810	Two
210	G	26	500	b	b	1	741	Five
210	G	27	800	l	k	0	847	One
210	G	28	650	k	k	1	640	Two
210	G	29	500	l	l	1	666	One
210	G	30	500	h	h	1	997	Four
210	G	31	950	b	b	1	677	Five
210	G	32	1100	j	j	1	677	Three
210	G	33	1100	h	h	1	1093	Four
210	G	34	950	l	l	1	522	One
210	G	35	800	b	b	1	733	Five
210	G	36	950	j	j	1	735	Three
210	G	37	650	l	l	1	632	One
210	G	38	1100	h	h	1	1056	Four
210	G	39	500	b	b	1	706	Five
210	G	40	500	k	k	1	994	Two
210	G	41	950	h	h	1	949	Four
210	G	42	500	j	j	1	709	Three
210	G	43	1100	k	k	1	840	Two
210	G	44	800	j	h	0	1624	Three
210	G	45	800	h	h	1	925	Four
210	G	46	1100	l	l	1	994	One
210	G	47	650	b	b	1	821	Five
210	G	48	800	k	k	1	948	Two
210	G	49	650	j	j	1	933	Three
210	G	50	650	b	b	1	425	Five
210	H	1	650	l	l	1	2292	Five
210	H	2	650	j	j	1	1495	Three
210	H	3	800	h	h	1	642	Two
210	H	4	650	l	l	1	772	Five
210	H	5	1100	b	b	1	650	One
210	H	6	800	k	k	1	898	Four
210	H	7	800	j	j	1	692	Three
210	H	8	1100	h	h	1	698	Two
210	H	9	500	j	j	1	786	Three
210	H	10	950	k	k	1	460	Four
210	H	11	500	h	h	1	884	Two
210	H	12	500	l	l	1	754	Five
210	H	13	1100	k	j	0	660	Four
210	H	14	650	b	b	1	546	One
210	H	15	950	j	j	1	1380	Three
210	H	16	800	l	l	1	615	Five
210	H	17	950	b	b	1	698	One
210	H	18	1100	k	k	1	842	Four
210	H	19	1100	j	j	1	807	Three
210	H	20	950	l	l	1	735	Five
210	H	21	500	k	k	1	1255	Four
210	H	22	500	b	b	1	911	One
210	H	23	650	h	h	1	479	Two
210	H	24	800	b	b	1	613	One
210	H	25	500	l	l	1	642	Five
210	H	26	650	h	h	1	653	Two
210	H	27	800	k	k	1	757	Four
210	H	28	800	b	b	1	618	One
210	H	29	950	j	j	1	597	Three
210	H	30	950	k	k	1	562	Four
210	H	31	800	h	h	1	650	Two
210	H	32	1100	l	l	1	543	Five
210	H	33	500	h	h	1	719	Two
210	H	34	650	b	b	1	479	One
210	H	35	1100	h	h	1	722	Two
210	H	36	1100	j	k	0	807	Three
210	H	37	500	b	h	0	869	One
210	H	38	800	l	l	1	962	Five
210	H	39	650	k	k	1	828	Four
210	H	40	950	l	l	1	841	Five
210	H	41	1100	b	b	1	606	One
210	H	42	650	k	k	1	929	Four
210	H	43	950	h	h	1	705	Two
210	H	44	650	j	j	1	1342	Three
210	H	45	950	b	b	1	625	One
210	H	46	500	k	k	1	1097	Four
210	H	47	500	j	j	1	857	Three
210	H	48	950	h	h	1	692	Two
210	H	49	1100	l	l	1	1289	Five
210	H	50	800	j	j	1	913	Three
211	A	1	950	k	k	1	874	Four
211	A	2	800	h	h	1	639	Two
211	A	3	950	b	b	1	596	One
211	A	4	500	k	k	1	687	Four
211	A	5	1100	l	l	1	420	Five
211	A	6	500	h	h	1	460	Two
211	A	7	650	b	b	1	530	One
211	A	8	1100	j	j	1	655	Three
211	A	9	800	l	l	1	618	Five
211	A	10	1100	h	h	1	490	Two
211	A	11	500	b	b	1	463	One
211	A	12	650	k	k	1	708	Four
211	A	13	950	l	l	1	402	Five
211	A	14	1100	b	b	1	471	One
211	A	15	650	k	k	1	623	Four
211	A	16	950	h	h	1	682	Two
211	A	17	650	j	j	1	796	Three
211	A	18	650	l	l	1	548	Five
211	A	19	650	j	j	1	628	Three
211	A	20	950	k	k	1	474	Four
211	A	21	800	j	j	1	623	Three
211	A	22	1100	b	b	1	455	One
211	A	23	800	k	k	1	522	Four
211	A	24	950	h	h	1	618	Two
211	A	25	1100	l	l	1	554	Five
211	A	26	800	j	j	1	631	Three
211	A	27	1100	h	h	1	666	Two
211	A	28	500	j	j	1	738	Three
211	A	29	500	h	h	1	706	Two
211	A	30	500	l	l	1	602	Five
211	A	31	1100	k	k	1	559	Four
211	A	32	650	b	b	1	535	One
211	A	33	950	j	j	1	714	Three
211	A	34	800	l	l	1	591	Five
211	A	35	950	b	b	1	549	One
211	A	36	1100	k	k	1	471	Four
211	A	37	1100	j	j	1	562	Three
211	A	38	950	l	l	1	522	Five
211	A	39	500	k	k	1	647	Four
211	A	40	500	b	b	1	509	One
211	A	41	650	h	h	1	589	Two
211	A	42	800	b	b	1	506	One
211	A	43	500	l	l	1	586	Five
211	A	44	650	h	h	1	639	Two
211	A	45	800	k	k	1	621	Four
211	A	46	800	b	b	1	559	One
211	A	47	950	j	j	1	685	Three
211	A	48	800	h	h	1	613	Two
211	A	49	650	l	l	1	551	Five
211	A	50	500	j	j	1	802	Three
211	B	1	650	b	b	1	543	Five
211	B	2	650	j	j	1	876	Three
211	B	3	800	k	k	1	634	Two
211	B	4	650	b	b	1	538	Five
211	B	5	1100	l	l	1	490	One
211	B	6	800	h	h	1	626	Four
211	B	7	800	j	j	1	540	Three
211	B	8	1100	k	j	0	564	Two
211	B	9	500	j	h	0	818	Three
211	B	10	950	h	h	1	557	Four
211	B	11	500	k	k	1	663	Two
211	B	12	500	b	b	1	623	Five
211	B	13	1100	h	h	1	719	Four
211	B	14	650	l	l	1	535	One
211	B	15	950	j	j	1	522	Three
211	B	16	800	b	b	1	602	Five
211	B	17	950	l	l	1	642	One
211	B	18	1100	h	h	1	559	Four
211	B	19	1100	j	j	1	514	Three
211	B	20	950	b	b	1	591	Five
211	B	21	500	h	h	1	578	Four
211	B	22	500	l	l	1	506	One
211	B	23	650	k	k	1	615	Two
211	B	24	800	l	l	1	490	One
211	B	25	500	b	b	1	551	Five
211	B	26	650	k	k	1	719	Two
211	B	27	800	h	h	1	557	Four
211	B	28	800	l	l	1	514	One
211	B	29	950	j	j	1	599	Three
211	B	30	950	h	h	1	565	Four
211	B	31	800	k	k	1	741	Two
211	B	32	1100	b	b	1	613	Five
211	B	33	500	k	k	1	714	Two
211	B	34	650	l	l	1	498	One
211	B	35	1100	k	k	1	610	Two
211	B	36	1100	j	j	1	599	Three
211	B	37	500	l	l	1	474	One
211	B	38	800	b	h	0	655	Five
211	B	39	650	h	h	1	452	Four
211	B	40	950	b	b	1	604	Five
211	B	41	1100	l	l	1	521	One
211	B	42	650	h	h	1	580	Four
211	B	43	950	k	k	1	758	Two
211	B	44	650	j	h	0	502	Three
211	B	45	950	l	l	1	521	One
211	B	46	500	h	h	1	526	Four
211	B	47	500	j	j	1	748	Three
211	B	48	950	k	k	1	585	Two
211	B	49	1100	b	b	1	625	Five
211	B	50	800	j	j	1	780	Three
211	C	1	950	j	j	1	765	Three
211	C	2	800	l	l	1	581	One
211	C	3	800	h	h	1	680	Four
211	C	4	650	k	k	1	635	Two
211	C	5	500	b	b	1	629	Five
211	C	6	800	l	l	1	683	One
211	C	7	650	k	k	1	678	Two
211	C	8	500	l	l	1	1320	One
211	C	9	500	h	h	1	667	Four
211	C	10	950	b	b	1	614	Five
211	C	11	1100	j	j	1	979	Three
211	C	12	1100	h	h	1	683	Four
211	C	13	950	l	l	1	667	One
211	C	14	800	b	b	1	510	Five
211	C	15	950	j	j	1	563	Three
211	C	16	650	l	l	1	486	One
211	C	17	1100	h	b	0	563	Four
211	C	18	500	b	b	1	664	Five
211	C	19	500	k	k	1	848	Two
211	C	20	950	h	h	1	720	Four
211	C	21	500	j	j	1	651	Three
211	C	22	1100	k	k	1	768	Two
211	C	23	800	j	j	1	856	Three
211	C	24	800	h	h	1	515	Four
211	C	25	1100	l	l	1	734	One
211	C	26	500	j	j	1	675	Three
211	C	27	650	b	b	1	642	Five
211	C	28	800	k	k	1	1346	Two
211	C	29	650	j	j	1	648	Three
211	C	30	650	b	b	1	682	Five
211	C	31	650	j	j	1	701	Three
211	C	32	950	k	k	1	768	Two
211	C	33	650	h	h	1	730	Four
211	C	34	1100	l	l	1	520	One
211	C	35	950	b	b	1	557	Five
211	C	36	650	h	j	0	565	Four
211	C	37	800	b	b	1	541	Five
211	C	38	500	l	l	1	701	One
211	C	39	1100	j	j	1	901	Three
211	C	40	1100	k	j	0	709	Two
211	C	41	650	l	l	1	813	One
211	C	42	500	k	k	1	522	Two
211	C	43	1100	b	b	1	560	Five
211	C	44	500	h	h	1	914	Four
211	C	45	950	l	l	1	632	One
211	C	46	800	k	k	1	981	Two
211	C	47	950	h	h	1	984	Four
211	C	48	800	j	j	1	650	Three
211	C	49	1100	b	b	1	720	Five
211	C	50	950	k	k	1	685	Two
211	D	1	800	j	j	1	709	Three
211	D	2	1100	l	l	1	688	Five
211	D	3	950	h	h	1	728	Two
211	D	4	500	j	j	1	621	Three
211	D	5	500	k	k	1	469	Four
211	D	6	950	b	b	1	450	One
211	D	7	650	j	j	1	589	Three
211	D	8	950	h	h	1	626	Two
211	D	9	650	k	k	1	872	Four
211	D	10	1100	b	b	1	538	One
211	D	11	950	l	l	1	717	Five
211	D	12	650	k	k	1	1421	Four
211	D	13	800	l	l	1	688	Five
211	D	14	500	b	b	1	605	One
211	D	15	1100	j	j	1	603	Three
211	D	16	1100	h	h	1	808	Two
211	D	17	650	b	b	1	539	One
211	D	18	500	h	h	1	1227	Two
211	D	19	1100	l	l	1	675	Five
211	D	20	800	h	h	1	592	Two
211	D	21	950	k	j	0	637	Four
211	D	22	950	j	j	1	691	Three
211	D	23	800	b	b	1	563	One
211	D	24	800	k	k	1	523	Four
211	D	25	650	h	h	1	1269	Two
211	D	26	500	l	l	1	648	Five
211	D	27	800	b	b	1	576	One
211	D	28	650	h	j	0	645	Two
211	D	29	500	b	b	1	523	One
211	D	30	500	k	k	1	840	Four
211	D	31	950	l	l	1	797	Five
211	D	32	1100	j	j	1	1208	Three
211	D	33	1100	k	k	1	997	Four
211	D	34	950	b	b	1	539	One
211	D	35	800	l	l	1	646	Five
211	D	36	950	j	j	1	1014	Three
211	D	37	650	b	b	1	711	One
211	D	38	1100	k	k	1	930	Four
211	D	39	500	l	l	1	671	Five
211	D	40	500	h	h	1	826	Two
211	D	41	950	k	k	1	1269	Four
211	D	42	500	j	j	1	1271	Three
211	D	43	1100	h	h	1	570	Two
211	D	44	800	j	j	1	674	Three
211	D	45	800	k	k	1	639	Four
211	D	46	1100	b	b	1	642	One
211	D	47	650	l	l	1	781	Five
211	D	48	800	h	h	1	799	Two
211	D	49	650	j	j	1	607	Three
211	D	50	650	l	l	1	682	Five
211	E	1	950	j	j	1	587	Three
211	E	2	800	b	b	1	384	One
211	E	3	800	k	k	1	787	Four
211	E	4	650	h	h	1	771	Two
211	E	5	500	l	l	1	640	Five
211	E	6	800	b	b	1	504	One
211	E	7	650	h	h	1	614	Two
211	E	8	500	b	b	1	534	One
211	E	9	500	k	k	1	686	Four
211	E	10	950	l	l	1	478	Five
211	E	11	1100	j	j	1	536	Three
211	E	12	1100	k	k	1	688	Four
211	E	13	950	b	b	1	576	One
211	E	14	800	l	l	1	563	Five
211	E	15	950	j	j	1	811	Three
211	E	16	650	b	b	1	598	One
211	E	17	1100	k	k	1	664	Four
211	E	18	500	l	l	1	544	Five
211	E	19	500	h	h	1	792	Two
211	E	20	950	k	k	1	758	Four
211	E	21	500	j	j	1	600	Three
211	E	22	1100	h	h	1	691	Two
211	E	23	800	j	j	1	643	Three
211	E	24	800	k	k	1	755	Four
211	E	25	1100	b	b	1	654	One
211	E	26	500	j	j	1	811	Three
211	E	27	650	l	l	1	557	Five
211	E	28	800	h	h	1	538	Two
211	E	29	650	j	j	1	511	Three
211	E	30	650	l	l	1	591	Five
211	E	31	650	j	j	1	864	Three
211	E	32	950	h	h	1	642	Two
211	E	33	650	k	k	1	829	Four
211	E	34	1100	b	b	1	968	One
211	E	35	950	l	l	1	536	Five
211	E	36	650	k	k	1	765	Four
211	E	37	800	l	l	1	573	Five
211	E	38	500	b	b	1	530	One
211	E	39	1100	j	j	1	808	Three
211	E	40	1100	h	h	1	709	Two
211	E	41	650	b	b	1	797	One
211	E	42	500	h	h	1	680	Two
211	E	43	1100	l	l	1	602	Five
211	E	44	500	k	j	0	608	Four
211	E	45	950	b	b	1	536	One
211	E	46	800	h	h	1	482	Two
211	E	47	950	k	k	1	1154	Four
211	E	48	800	j	j	1	608	Three
211	E	49	1100	l	l	1	581	Five
211	E	50	950	h	h	1	1072	Two
211	F	1	950	h	j	0	589	Four
211	F	2	800	k	k	1	722	Two
211	F	3	950	l	l	1	346	One
211	F	4	500	h	h	1	674	Four
211	F	5	1100	b	b	1	413	Five
211	F	6	500	k	k	1	1065	Two
211	F	7	650	l	l	1	454	One
211	F	8	1100	k	k	1	702	Two
